"","Participant","correct","latency","age","gender","ethnicity","education","politicalOrientation","polAffil","NFC","CRT","ANS","Trial","choice","polAffil2","gChoice","gChoice1","whosBetter","numInfo","affilStrength","V_int","V_cond","Z","v_bias","numIngroup","numOutgroup","meanIngroup","meanOutgroup","SDIngroup","SDOutgroup","skewIngroup","skewOutgroup","stim_weight","stim_n","diff_in_min_out","diff_in_min_out_centered","numDiff0","numDiff_centered0","reasoning_comp"
"1",2884955,0,2146,27,"Male","Hispanic","Associate's Degree",3,"Republican",4.33333333333333,1,4,24,"dem","Republican",0,1,"ingroup",5,1,-0.018731361,0.025995148,0.517592952,0.007263787,3,2,66,63,8.18535277187245,2.82842712474619,0,0.422080442964946,-5.7310142272068,0.994932432432432,3,3.17220978533357,1,0.95777027027027,0.0942543103414876
"2",2884955,0,3837,27,"Male","Hispanic","Associate's Degree",3,"Republican",4.33333333333333,1,4,18,"rep","Republican",1,0,"outgroup",6,1,-0.018731361,0.025995148,0.517592952,0.007263787,4,2,68.25,59.5,8.77021474461525,9.19238815542512,0,0.939105274313676,-17.4810142272068,-2.00506756756757,8.75,8.92220978533357,2,1.95777027027027,0.0942543103414876
"3",2884955,0,2341,27,"Male","Hispanic","Associate's Degree",3,"Republican",4.33333333333333,1,4,21,"dem","Republican",0,1,"ingroup",5,1,-0.018731361,0.025995148,0.517592952,0.007263787,2,3,77.5,61.6666666666667,12.0208152801713,7.57187779440036,-0.652012117044045,0,7.1023191061265,-1.00506756756757,15.8333333333333,16.0055431186669,-1,-1.04222972972973,0.0942543103414876
"4",2884955,0,2248,27,"Male","Hispanic","Associate's Degree",3,"Republican",4.33333333333333,1,4,17,"rep","Republican",1,0,"outgroup",5,1,-0.018731361,0.025995148,0.517592952,0.007263787,4,1,62.25,74,5.5,NA,NA,-0.516188445030544,3.0189857727932,-3.00506756756757,-11.75,-11.5777902146664,3,2.95777027027027,0.0942543103414876
"5",2884955,0,2411,27,"Male","Hispanic","Associate's Degree",3,"Republican",4.33333333333333,1,4,10,"rep","Republican",1,0,"outgroup",5,1,-0.018731361,0.025995148,0.517592952,0.007263787,3,2,48,87,14,8.48528137423857,0,0,30.2689857727932,-1.00506756756757,-39,-38.8277902146664,1,0.95777027027027,0.0942543103414876
"6",2884955,0,2838,27,"Male","Hispanic","Associate's Degree",3,"Republican",4.33333333333333,1,4,20,"rep","Republican",1,0,"outgroup",5,1,-0.018731361,0.025995148,0.517592952,0.007263787,3,2,57,68,6.92820323027551,12.7279220613579,0,0.707106781186547,2.2689857727932,-1.00506756756757,-11,-10.8277902146664,1,0.95777027027027,0.0942543103414876
"7",2884955,1,2263,27,"Male","Hispanic","Associate's Degree",3,"Republican",4.33333333333333,1,4,23,"dem","Republican",0,1,"outgroup",5,1,-0.018731361,0.025995148,0.517592952,0.007263787,3,2,69,66.5,24.3310501211929,3.53553390593274,0,-0.685667537488922,-11.2310142272068,-1.00506756756757,2.5,2.67220978533357,1,0.95777027027027,0.0942543103414876
"8",2884955,1,398,27,"Male","Hispanic","Associate's Degree",3,"Republican",4.33333333333333,1,4,56,"rep","Republican",1,0,"ingroup",4,1,-0.018731361,0.025995148,0.517592952,0.007263787,3,1,59,37,10.4403065089106,NA,NA,-0.678026131394915,13.2689857727932,1.99493243243243,22,22.1722097853336,2,1.95777027027027,0.0942543103414876
"9",2884955,1,557,27,"Male","Hispanic","Associate's Degree",3,"Republican",4.33333333333333,1,4,41,"dem","Republican",0,1,"outgroup",4,1,-0.018731361,0.025995148,0.517592952,0.007263787,2,2,55.5,59,7.77817459305202,7.07106781186548,0,0,-5.2310142272068,-0.00506756756756757,-3.5,-3.32779021466643,0,-0.0422297297297297,0.0942543103414876
"10",2884955,0,2321,27,"Male","Hispanic","Associate's Degree",3,"Republican",4.33333333333333,1,4,54,"rep","Republican",1,0,"outgroup",5,1,-0.018731361,0.025995148,0.517592952,0.007263787,3,2,64.3333333333333,66,3.05505046330389,28.2842712474619,0,-0.381801774160601,-7.0643475605401,-1.00506756756757,-1.6666666666667,-1.49445688133313,1,0.95777027027027,0.0942543103414876
"11",2884955,0,2122,27,"Male","Hispanic","Associate's Degree",3,"Republican",4.33333333333333,1,4,9,"rep","Republican",1,0,"outgroup",5,1,-0.018731361,0.025995148,0.517592952,0.007263787,2,3,56.5,68,14.8492424049175,7.81024967590665,-0.694088168075978,0,2.7689857727932,0.994932432432432,-11.5,-11.3277902146664,-1,-1.04222972972973,0.0942543103414876
"12",2884955,1,4204,27,"Male","Hispanic","Associate's Degree",3,"Republican",4.33333333333333,1,4,16,"rep","Republican",1,0,"ingroup",6,1,-0.018731361,0.025995148,0.517592952,0.007263787,4,2,55.75,62.5,10.719919153924,4.94974746830583,0,0.0130055232528113,-15.4810142272068,1.99493243243243,-6.75,-6.57779021466643,2,1.95777027027027,0.0942543103414876
"13",2884955,0,405,27,"Male","Hispanic","Associate's Degree",3,"Republican",4.33333333333333,1,4,36,"rep","Republican",1,0,"outgroup",4,1,-0.018731361,0.025995148,0.517592952,0.007263787,2,2,62.5,76,12.0208152801713,1.4142135623731,0,0,4.7689857727932,-0.00506756756756757,-13.5,-13.3277902146664,0,-0.0422297297297297,0.0942543103414876
"14",2884955,1,4000,27,"Male","Hispanic","Associate's Degree",3,"Republican",4.33333333333333,1,4,37,"rep","Republican",1,0,"ingroup",6,1,-0.018731361,0.025995148,0.517592952,0.007263787,3,3,78.6666666666667,70.6666666666667,17.6162803489651,12.6622799421484,0.585102402124017,-0.505208832786553,-0.731014227206801,-0.00506756756756757,8,8.17220978533357,0,-0.0422297297297297,0.0942543103414876
"15",2884955,0,2310,27,"Male","Hispanic","Associate's Degree",3,"Republican",4.33333333333333,1,4,4,"dem","Republican",0,1,"ingroup",5,1,-0.018731361,0.025995148,0.517592952,0.007263787,4,1,66,66,8.90692614392492,NA,NA,0.970671458294081,-8.7310142272068,2.99493243243243,0,0.172209785333571,3,2.95777027027027,0.0942543103414876
"16",2884955,1,662,27,"Male","Hispanic","Associate's Degree",3,"Republican",4.33333333333333,1,4,19,"rep","Republican",1,0,"ingroup",4,1,-0.018731361,0.025995148,0.517592952,0.007263787,3,1,60,54,12.7671453348037,NA,NA,-0.40784717412701,-2.7310142272068,1.99493243243243,6,6.17220978533357,2,1.95777027027027,0.0942543103414876
"17",2884955,0,3483,27,"Male","Hispanic","Associate's Degree",3,"Republican",4.33333333333333,1,4,32,"dem","Republican",0,1,"ingroup",6,1,-0.018731361,0.025995148,0.517592952,0.007263787,3,3,65.6666666666667,48,10.1159939369957,7,0,-0.699341130502137,8.9356524394599,-0.00506756756756757,17.6666666666667,17.8388764520003,0,-0.0422297297297297,0.0942543103414876
"18",2884955,1,740,27,"Male","Hispanic","Associate's Degree",3,"Republican",4.33333333333333,1,4,53,"rep","Republican",1,0,"ingroup",4,1,-0.018731361,0.025995148,0.517592952,0.007263787,4,0,70,NA,5.94418483337567,NA,NA,0,NA,3.99493243243243,NA,NA,4,3.95777027027027,0.0942543103414876
"19",2884955,0,721,27,"Male","Hispanic","Associate's Degree",3,"Republican",4.33333333333333,1,4,55,"rep","Republican",1,0,"outgroup",4,1,-0.018731361,0.025995148,0.517592952,0.007263787,3,1,66,54,4.35889894354067,NA,NA,-0.665468866123835,-20.7310142272068,-2.00506756756757,12,12.1722097853336,2,1.95777027027027,0.0942543103414876
"20",2884955,0,2673,27,"Male","Hispanic","Associate's Degree",3,"Republican",4.33333333333333,1,4,34,"rep","Republican",1,0,"outgroup",5,1,-0.018731361,0.025995148,0.517592952,0.007263787,4,1,66.5,76,13.4783777461038,NA,NA,0.594192330788731,0.768985772793199,-3.00506756756757,-9.5,-9.32779021466643,3,2.95777027027027,0.0942543103414876
"21",2884955,0,2413,27,"Male","Hispanic","Associate's Degree",3,"Republican",4.33333333333333,1,4,5,"dem","Republican",0,1,"ingroup",5,1,-0.018731361,0.025995148,0.517592952,0.007263787,2,3,69.5,58,4.94974746830583,7.81024967590665,0.694088168075978,0,2.7689857727932,-1.00506756756757,11.5,11.6722097853336,-1,-1.04222972972973,0.0942543103414876
"22",2884955,1,3711,27,"Male","Hispanic","Associate's Degree",3,"Republican",4.33333333333333,1,4,6,"dem","Republican",0,1,"outgroup",6,1,-0.018731361,0.025995148,0.517592952,0.007263787,3,3,66.6666666666667,63.3333333333333,1.52752523165195,17.0098010962308,-0.071891701492917,-0.381801774160618,-12.0643475605402,-0.00506756756756757,3.3333333333334,3.50554311866697,0,-0.0422297297297297,0.0942543103414876
"23",2884955,0,1804,27,"Male","Hispanic","Associate's Degree",3,"Republican",4.33333333333333,1,4,33,"dem","Republican",0,1,"ingroup",5,1,-0.018731361,0.025995148,0.517592952,0.007263787,2,3,61.5,50,21.920310216783,14.422205101856,-0.470330460336986,0,2.7689857727932,-1.00506756756757,11.5,11.6722097853336,-1,-1.04222972972973,0.0942543103414876
"24",2884955,1,5394,27,"Male","Hispanic","Associate's Degree",3,"Republican",4.33333333333333,1,4,74,"dem","Republican",0,1,"outgroup",7,1,-0.018731361,0.025995148,0.517592952,0.007263787,5,2,61.6,66.5,6.98569967862919,10.6066017177982,0,0.111966677277383,-3.8310142272068,-3.00506756756757,-4.9,-4.72779021466643,3,2.95777027027027,0.0942543103414876
"25",2884955,1,2416,27,"Male","Hispanic","Associate's Degree",3,"Republican",4.33333333333333,1,4,75,"rep","Republican",1,0,"ingroup",5,1,-0.018731361,0.025995148,0.517592952,0.007263787,5,0,61.2,NA,9.20326029187483,NA,NA,0.430882377886285,NA,4.99493243243243,NA,NA,5,4.95777027027027,0.0942543103414876
"26",2884955,0,1010,27,"Male","Hispanic","Associate's Degree",3,"Republican",4.33333333333333,1,4,52,"rep","Republican",1,0,"outgroup",4,1,-0.018731361,0.025995148,0.517592952,0.007263787,4,0,48.75,NA,14.4769932421526,NA,NA,0.31468360357785,NA,-4.00506756756757,NA,NA,4,3.95777027027027,0.0942543103414876
"27",2884955,0,3178,27,"Male","Hispanic","Associate's Degree",3,"Republican",4.33333333333333,1,4,7,"rep","Republican",1,0,"outgroup",6,1,-0.018731361,0.025995148,0.517592952,0.007263787,4,2,65,70.5,2.82842712474619,2.12132034355964,0,-0.816496580927726,-3.2310142272068,-2.00506756756757,-5.5,-5.32779021466643,2,1.95777027027027,0.0942543103414876
"28",2884955,0,841,27,"Male","Hispanic","Associate's Degree",3,"Republican",4.33333333333333,1,4,35,"rep","Republican",1,0,"outgroup",4,1,-0.018731361,0.025995148,0.517592952,0.007263787,4,0,60.75,NA,6.23832242407097,NA,NA,-0.0624259598353599,NA,-4.00506756756757,NA,NA,4,3.95777027027027,0.0942543103414876
"29",2884955,0,378,27,"Male","Hispanic","Associate's Degree",3,"Republican",4.33333333333333,1,4,8,"rep","Republican",1,0,"outgroup",4,1,-0.018731361,0.025995148,0.517592952,0.007263787,2,2,57.5,77.5,14.8492424049175,3.53553390593274,0,0,11.2689857727932,-0.00506756756756757,-20,-19.8277902146664,0,-0.0422297297297297,0.0942543103414876
"30",2884955,0,2111,27,"Male","Hispanic","Associate's Degree",3,"Republican",4.33333333333333,1,4,62,"rep","Republican",1,0,"outgroup",5,1,-0.018731361,0.025995148,0.517592952,0.007263787,4,1,70.25,81,7.18215380880508,NA,NA,1.13957036648387,2.0189857727932,-3.00506756756757,-10.75,-10.5777902146664,3,2.95777027027027,0.0942543103414876
"31",2884955,0,3764,27,"Male","Hispanic","Associate's Degree",3,"Republican",4.33333333333333,1,4,60,"rep","Republican",1,0,"outgroup",6,1,-0.018731361,0.025995148,0.517592952,0.007263787,5,1,52.4,59,13.3341666406266,NA,NA,-0.072831149498489,-2.1310142272068,-4.00506756756757,-6.6,-6.42779021466643,4,3.95777027027027,0.0942543103414876
"32",2884955,0,207,27,"Male","Hispanic","Associate's Degree",3,"Republican",4.33333333333333,1,4,40,"dem","Republican",0,1,"ingroup",4,1,-0.018731361,0.025995148,0.517592952,0.007263787,1,3,47,55.6666666666667,NA,9.29157324317757,0.483821180991123,NA,-17.3976808938735,-2.00506756756757,-8.6666666666667,-8.49445688133313,-2,-2.04222972972973,0.0942543103414876
"33",2884955,1,3847,27,"Male","Hispanic","Associate's Degree",3,"Republican",4.33333333333333,1,4,51,"rep","Republican",1,0,"ingroup",6,1,-0.018731361,0.025995148,0.517592952,0.007263787,2,4,71,61.25,9.89949493661167,13.6717470232106,-1.06631698373598,0,1.0189857727932,-2.00506756756757,9.75,9.92220978533357,-2,-2.04222972972973,0.0942543103414876
"34",2884955,0,842,27,"Male","Hispanic","Associate's Degree",3,"Republican",4.33333333333333,1,4,22,"dem","Republican",0,1,"ingroup",4,1,-0.018731361,0.025995148,0.517592952,0.007263787,3,1,68,57,10.5830052442584,NA,NA,0.595170064139497,2.2689857727932,1.99493243243243,11,11.1722097853336,2,1.95777027027027,0.0942543103414876
"35",2884955,1,3556,27,"Male","Hispanic","Associate's Degree",3,"Republican",4.33333333333333,1,4,63,"dem","Republican",0,1,"outgroup",6,1,-0.018731361,0.025995148,0.517592952,0.007263787,2,4,77,62.5,11.3137084989848,12.7148207485071,-0.202227933163472,0,-23.2310142272068,1.99493243243243,14.5,14.6722097853336,-2,-2.04222972972973,0.0942543103414876
"36",2884955,0,906,27,"Male","Hispanic","Associate's Degree",3,"Republican",4.33333333333333,1,4,76,"rep","Republican",1,0,"outgroup",4,1,-0.018731361,0.025995148,0.517592952,0.007263787,2,2,75.5,64.5,13.4350288425444,14.8492424049175,0,0,-19.7310142272068,-0.00506756756756757,11,11.1722097853336,0,-0.0422297297297297,0.0942543103414876
"37",2884955,1,1332,27,"Male","Hispanic","Associate's Degree",3,"Republican",4.33333333333333,1,4,42,"rep","Republican",1,0,"ingroup",4,1,-0.018731361,0.025995148,0.517592952,0.007263787,4,0,78.25,NA,4.27200187265877,NA,NA,-0.997869717691296,NA,3.99493243243243,NA,NA,4,3.95777027027027,0.0942543103414876
"38",2884955,0,1971,27,"Male","Hispanic","Associate's Degree",3,"Republican",4.33333333333333,1,4,61,"dem","Republican",0,1,"ingroup",5,1,-0.018731361,0.025995148,0.517592952,0.007263787,2,3,88,56.6666666666667,2.82842712474619,15.8850034099251,0.703955526253003,0,22.6023191061265,-1.00506756756757,31.3333333333333,31.5055431186669,-1,-1.04222972972973,0.0942543103414876
"39",2884955,0,2321,27,"Male","Hispanic","Associate's Degree",3,"Republican",4.33333333333333,1,4,31,"rep","Republican",1,0,"outgroup",5,1,-0.018731361,0.025995148,0.517592952,0.007263787,3,2,60.6666666666667,64.5,9.29157324317757,16.2634559672906,0,-0.670428228357963,-4.8976808938735,-1.00506756756757,-3.8333333333333,-3.66112354799973,1,0.95777027027027,0.0942543103414876
"40",2884955,0,795,27,"Male","Hispanic","Associate's Degree",3,"Republican",4.33333333333333,1,4,27,"dem","Republican",0,1,"ingroup",4,1,-0.018731361,0.025995148,0.517592952,0.007263787,2,2,65.5,59,17.6776695296637,16.9705627484771,0,0,-2.2310142272068,-0.00506756756756757,6.5,6.67220978533357,0,-0.0422297297297297,0.0942543103414876
"41",2884955,0,1005,27,"Male","Hispanic","Associate's Degree",3,"Republican",4.33333333333333,1,4,28,"dem","Republican",0,1,"ingroup",4,1,-0.018731361,0.025995148,0.517592952,0.007263787,2,2,63,52,24.0416305603426,2.82842712474619,0,0,2.2689857727932,-0.00506756756756757,11,11.1722097853336,0,-0.0422297297297297,0.0942543103414876
"42",2884955,1,4962,27,"Male","Hispanic","Associate's Degree",3,"Republican",4.33333333333333,1,4,65,"dem","Republican",0,1,"outgroup",7,1,-0.018731361,0.025995148,0.517592952,0.007263787,4,3,50.5,54.6666666666667,11.9582607431014,4.16333199893227,-0.528004979218186,0.983165628246363,-4.5643475605401,-1.00506756756757,-4.1666666666667,-3.99445688133313,1,0.95777027027027,0.0942543103414876
"43",2884955,1,4031,27,"Male","Hispanic","Associate's Degree",3,"Republican",4.33333333333333,1,4,3,"rep","Republican",1,0,"ingroup",6,1,-0.018731361,0.025995148,0.517592952,0.007263787,2,4,63,54.75,7.07106781186548,10.0788557551606,0.293089446869331,0,-0.481014227206801,-2.00506756756757,8.25,8.42220978533357,-2,-2.04222972972973,0.0942543103414876
"44",2884955,1,2175,27,"Male","Hispanic","Associate's Degree",3,"Republican",4.33333333333333,1,4,73,"rep","Republican",1,0,"ingroup",5,1,-0.018731361,0.025995148,0.517592952,0.007263787,3,2,64,64,5.29150262212918,15.556349186104,0,-0.595170064139497,-8.7310142272068,0.994932432432432,0,0.172209785333571,1,0.95777027027027,0.0942543103414876
"45",2884955,1,1139,27,"Male","Hispanic","Associate's Degree",3,"Republican",4.33333333333333,1,4,50,"dem","Republican",0,1,"outgroup",4,1,-0.018731361,0.025995148,0.517592952,0.007263787,1,3,65,67,NA,7.54983443527075,-0.239063146929545,NA,-6.7310142272068,1.99493243243243,-2,-1.82779021466643,-2,-2.04222972972973,0.0942543103414876
"46",2884955,1,2112,27,"Male","Hispanic","Associate's Degree",3,"Republican",4.33333333333333,1,4,49,"dem","Republican",0,1,"outgroup",5,1,-0.018731361,0.025995148,0.517592952,0.007263787,3,2,64.6666666666667,66.5,4.93288286231625,4.94974746830583,0,-0.674555484545769,-6.8976808938735,-1.00506756756757,-1.8333333333333,-1.66112354799973,1,0.95777027027027,0.0942543103414876
"47",2884955,0,1306,27,"Male","Hispanic","Associate's Degree",3,"Republican",4.33333333333333,1,4,80,"rep","Republican",1,0,"outgroup",4,1,-0.018731361,0.025995148,0.517592952,0.007263787,3,1,65,76,7.21110255092798,NA,NA,-0.470330460336986,2.2689857727932,-2.00506756756757,-11,-10.8277902146664,2,1.95777027027027,0.0942543103414876
"48",2884955,1,3532,27,"Male","Hispanic","Associate's Degree",3,"Republican",4.33333333333333,1,4,44,"dem","Republican",0,1,"outgroup",6,1,-0.018731361,0.025995148,0.517592952,0.007263787,3,3,67,62.6666666666667,16.0934769394311,2.51661147842358,-0.239063146929541,0.515671469856881,-13.0643475605401,-0.00506756756756757,4.3333333333333,4.50554311866687,0,-0.0422297297297297,0.0942543103414876
"49",2884955,0,2374,27,"Male","Hispanic","Associate's Degree",3,"Republican",4.33333333333333,1,4,12,"rep","Republican",1,0,"outgroup",5,1,-0.018731361,0.025995148,0.517592952,0.007263787,2,3,53.5,59.6666666666667,0.707106781186548,12.5033328890074,-0.0489419267973535,0,-2.5643475605401,0.994932432432432,-6.1666666666667,-5.99445688133313,-1,-1.04222972972973,0.0942543103414876
"50",2884955,1,2176,27,"Male","Hispanic","Associate's Degree",3,"Republican",4.33333333333333,1,4,14,"dem","Republican",0,1,"outgroup",5,1,-0.018731361,0.025995148,0.517592952,0.007263787,3,2,72.6666666666667,67.5,10.6926766215636,10.6066017177982,0,0.700155440078778,-13.8976808938735,-1.00506756756757,5.1666666666667,5.33887645200027,1,0.95777027027027,0.0942543103414876
"51",2884955,1,5380,27,"Male","Hispanic","Associate's Degree",3,"Republican",4.33333333333333,1,4,43,"rep","Republican",1,0,"ingroup",7,1,-0.018731361,0.025995148,0.517592952,0.007263787,5,2,69.8,44,13.4981480211176,14.142135623731,0,0.376902385564467,17.0689857727932,2.99493243243243,25.8,25.9722097853336,3,2.95777027027027,0.0942543103414876
"52",2884955,1,565,27,"Male","Hispanic","Associate's Degree",3,"Republican",4.33333333333333,1,4,29,"rep","Republican",1,0,"ingroup",4,1,-0.018731361,0.025995148,0.517592952,0.007263787,2,2,77,55,2.82842712474619,9.89949493661167,0,0,13.2689857727932,-0.00506756756756757,22,22.1722097853336,0,-0.0422297297297297,0.0942543103414876
"53",2884955,1,1121,27,"Male","Hispanic","Associate's Degree",3,"Republican",4.33333333333333,1,4,30,"rep","Republican",1,0,"ingroup",4,1,-0.018731361,0.025995148,0.517592952,0.007263787,4,0,71.75,NA,14.1037819986934,NA,NA,0.290941203594169,NA,3.99493243243243,NA,NA,4,3.95777027027027,0.0942543103414876
"54",2884955,1,2733,27,"Male","Hispanic","Associate's Degree",3,"Republican",4.33333333333333,1,4,59,"dem","Republican",0,1,"outgroup",5,1,-0.018731361,0.025995148,0.517592952,0.007263787,2,3,60.5,65.6666666666667,28.9913780286484,16.4418166068514,-0.602652659187278,0,-3.5643475605401,0.994932432432432,-5.1666666666667,-4.99445688133313,-1,-1.04222972972973,0.0942543103414876
"55",2884955,1,2011,27,"Male","Hispanic","Associate's Degree",3,"Republican",4.33333333333333,1,4,48,"rep","Republican",1,0,"ingroup",5,1,-0.018731361,0.025995148,0.517592952,0.007263787,2,3,61,62.3333333333333,15.556349186104,8.14452781524708,-0.659439609664589,0,-10.0643475605401,-1.00506756756757,-1.3333333333333,-1.16112354799973,-1,-1.04222972972973,0.0942543103414876
"56",2884955,1,2214,27,"Male","Hispanic","Associate's Degree",3,"Republican",4.33333333333333,1,4,72,"rep","Republican",1,0,"ingroup",5,1,-0.018731361,0.025995148,0.517592952,0.007263787,3,2,80,56,1.73205080756888,8.48528137423857,0,-0.707106781186547,15.2689857727932,0.994932432432432,24,24.1722097853336,1,0.95777027027027,0.0942543103414876
"57",2884955,1,471,27,"Male","Hispanic","Associate's Degree",3,"Republican",4.33333333333333,1,4,78,"dem","Republican",0,1,"outgroup",4,1,-0.018731361,0.025995148,0.517592952,0.007263787,1,3,62,64.6666666666667,NA,8.9628864398325,0.697217201821329,NA,-6.0643475605401,1.99493243243243,-2.6666666666667,-2.49445688133313,-2,-2.04222972972973,0.0942543103414876
"58",2884955,0,2655,27,"Male","Hispanic","Associate's Degree",3,"Republican",4.33333333333333,1,4,11,"dem","Republican",0,1,"ingroup",5,1,-0.018731361,0.025995148,0.517592952,0.007263787,2,3,66,56.6666666666667,2.82842712474619,13.7961347243833,-0.604060417613218,0,0.602319106126499,-1.00506756756757,9.3333333333333,9.50554311866687,-1,-1.04222972972973,0.0942543103414876
"59",2884955,0,826,27,"Male","Hispanic","Associate's Degree",3,"Republican",4.33333333333333,1,4,26,"rep","Republican",1,0,"outgroup",4,1,-0.018731361,0.025995148,0.517592952,0.007263787,4,0,56.25,NA,15.1959424408842,NA,NA,-1.00263090256568,NA,-4.00506756756757,NA,NA,4,3.95777027027027,0.0942543103414876
"60",2884955,1,245,27,"Male","Hispanic","Associate's Degree",3,"Republican",4.33333333333333,1,4,64,"rep","Republican",1,0,"ingroup",4,1,-0.018731361,0.025995148,0.517592952,0.007263787,4,0,74.25,NA,8.30160627027485,NA,NA,-0.333774251181117,NA,3.99493243243243,NA,NA,4,3.95777027027027,0.0942543103414876
"61",2884955,0,2261,27,"Male","Hispanic","Associate's Degree",3,"Republican",4.33333333333333,1,4,69,"rep","Republican",1,0,"outgroup",5,1,-0.018731361,0.025995148,0.517592952,0.007263787,4,1,63.25,69,6.18465843842649,NA,NA,-0.568043903368225,-2.9810142272068,-3.00506756756757,-5.75,-5.57779021466643,3,2.95777027027027,0.0942543103414876
"62",2884955,1,5396,27,"Male","Hispanic","Associate's Degree",3,"Republican",4.33333333333333,1,4,2,"dem","Republican",0,1,"outgroup",7,1,-0.018731361,0.025995148,0.517592952,0.007263787,4,3,57.25,56,13.2507861402006,10.816653826392,0.470330460336986,0.0251251966850789,-9.9810142272068,-1.00506756756757,1.25,1.42220978533357,1,0.95777027027027,0.0942543103414876
"63",2884955,1,2134,27,"Male","Hispanic","Associate's Degree",3,"Republican",4.33333333333333,1,4,71,"dem","Republican",0,1,"outgroup",5,1,-0.018731361,0.025995148,0.517592952,0.007263787,2,3,60.5,67.6666666666667,10.6066017177982,10.2632028788938,0.445109265323635,0,-1.5643475605401,0.994932432432432,-7.1666666666667,-6.99445688133313,-1,-1.04222972972973,0.0942543103414876
"64",2884955,1,2554,27,"Male","Hispanic","Associate's Degree",3,"Republican",4.33333333333333,1,4,58,"dem","Republican",0,1,"outgroup",5,1,-0.018731361,0.025995148,0.517592952,0.007263787,2,3,45,70,2.82842712474619,14,0,0,16.2689857727932,0.994932432432432,-25,-24.8277902146664,-1,-1.04222972972973,0.0942543103414876
"65",2884955,0,2360,27,"Male","Hispanic","Associate's Degree",3,"Republican",4.33333333333333,1,4,77,"dem","Republican",0,1,"ingroup",5,1,-0.018731361,0.025995148,0.517592952,0.007263787,2,3,57,52.6666666666667,15.556349186104,6.50640709864771,-0.0938713409261798,0,-4.3976808938735,-1.00506756756757,4.3333333333333,4.50554311866687,-1,-1.04222972972973,0.0942543103414876
"66",2884955,0,2228,27,"Male","Hispanic","Associate's Degree",3,"Republican",4.33333333333333,1,4,79,"dem","Republican",0,1,"ingroup",5,1,-0.018731361,0.025995148,0.517592952,0.007263787,2,3,81.5,52,6.36396103067893,3.60555127546399,-0.470330460336986,0,20.7689857727932,-1.00506756756757,29.5,29.6722097853336,-1,-1.04222972972973,0.0942543103414876
"67",2884955,1,3859,27,"Male","Hispanic","Associate's Degree",3,"Republican",4.33333333333333,1,4,66,"rep","Republican",1,0,"ingroup",6,1,-0.018731361,0.025995148,0.517592952,0.007263787,3,3,63,62.3333333333333,2.64575131106459,7.23417813807024,-0.691936526985649,-0.595170064139497,-8.0643475605401,-0.00506756756756757,0.6666666666667,0.838876452000271,0,-0.0422297297297297,0.0942543103414876
"68",2884955,0,2190,27,"Male","Hispanic","Associate's Degree",3,"Republican",4.33333333333333,1,4,39,"dem","Republican",0,1,"ingroup",5,1,-0.018731361,0.025995148,0.517592952,0.007263787,2,3,62,69.6666666666667,22.6274169979695,13.6137185711081,0.555748967876573,0,-16.3976808938735,-1.00506756756757,-7.6666666666667,-7.49445688133313,-1,-1.04222972972973,0.0942543103414876
"69",2884955,0,3778,27,"Male","Hispanic","Associate's Degree",3,"Republican",4.33333333333333,1,4,13,"rep","Republican",1,0,"outgroup",6,1,-0.018731361,0.025995148,0.517592952,0.007263787,3,3,62,74.3333333333333,6.08276253029822,4.93288286231625,0.674555484545769,-0.685667537488922,3.6023191061265,-0.00506756756756757,-12.3333333333333,-12.1611235479997,0,-0.0422297297297297,0.0942543103414876
"70",2884955,0,3650,27,"Male","Hispanic","Associate's Degree",3,"Republican",4.33333333333333,1,4,25,"dem","Republican",0,1,"ingroup",6,1,-0.018731361,0.025995148,0.517592952,0.007263787,2,4,75,63.5,12.7279220613579,5.44671154612273,-0.257257912450982,0,2.7689857727932,-2.00506756756757,11.5,11.6722097853336,-2,-2.04222972972973,0.0942543103414876
"71",2884955,0,2074,27,"Male","Hispanic","Associate's Degree",3,"Republican",4.33333333333333,1,4,15,"rep","Republican",1,0,"outgroup",5,1,-0.018731361,0.025995148,0.517592952,0.007263787,2,3,62,63.6666666666667,9.89949493661167,4.50924975282289,-0.135061522784739,0,-7.0643475605401,0.994932432432432,-1.6666666666667,-1.49445688133313,-1,-1.04222972972973,0.0942543103414876
"72",2884955,0,3804,27,"Male","Hispanic","Associate's Degree",3,"Republican",4.33333333333333,1,4,46,"rep","Republican",1,0,"outgroup",6,1,-0.018731361,0.025995148,0.517592952,0.007263787,3,3,60,69,7.54983443527075,12.1243556529821,-0.294799620144829,0.239063146929545,0.268985772793199,-0.00506756756756757,-9,-8.82779021466643,0,-0.0422297297297297,0.0942543103414876
"73",2884955,1,2379,27,"Male","Hispanic","Associate's Degree",3,"Republican",4.33333333333333,1,4,70,"dem","Republican",0,1,"outgroup",5,1,-0.018731361,0.025995148,0.517592952,0.007263787,2,3,74.5,70,9.19238815542512,4,0,0,-13.2310142272068,0.994932432432432,4.5,4.67220978533357,-1,-1.04222972972973,0.0942543103414876
"74",2884955,0,2221,27,"Male","Hispanic","Associate's Degree",3,"Republican",4.33333333333333,1,4,38,"rep","Republican",1,0,"outgroup",5,1,-0.018731361,0.025995148,0.517592952,0.007263787,4,1,57.25,76,12.6589889011722,NA,NA,-0.302748422192604,10.0189857727932,-3.00506756756757,-18.75,-18.5777902146664,3,2.95777027027027,0.0942543103414876
"75",2884955,1,1330,27,"Male","Hispanic","Associate's Degree",3,"Republican",4.33333333333333,1,4,57,"dem","Republican",0,1,"outgroup",4,1,-0.018731361,0.025995148,0.517592952,0.007263787,2,2,69,79,2.82842712474619,15.556349186104,0,0,1.2689857727932,-0.00506756756756757,-10,-9.82779021466643,0,-0.0422297297297297,0.0942543103414876
"76",2884955,0,2551,27,"Male","Hispanic","Associate's Degree",3,"Republican",4.33333333333333,1,4,1,"rep","Republican",1,0,"outgroup",5,1,-0.018731361,0.025995148,0.517592952,0.007263787,4,1,63,78,16.2685791225499,NA,NA,0.58569717699638,6.2689857727932,-3.00506756756757,-15,-14.8277902146664,3,2.95777027027027,0.0942543103414876
"77",2884955,1,588,27,"Male","Hispanic","Associate's Degree",3,"Republican",4.33333333333333,1,4,47,"rep","Republican",1,0,"ingroup",4,1,-0.018731361,0.025995148,0.517592952,0.007263787,2,2,65.5,64,13.4350288425444,4.24264068711928,0,0,-7.2310142272068,-0.00506756756756757,1.5,1.67220978533357,0,-0.0422297297297297,0.0942543103414876
"78",2884955,1,3494,27,"Male","Hispanic","Associate's Degree",3,"Republican",4.33333333333333,1,4,45,"rep","Republican",1,0,"ingroup",6,1,-0.018731361,0.025995148,0.517592952,0.007263787,4,2,63,50,5.65685424949238,9.89949493661167,0,0.816496580927726,4.2689857727932,1.99493243243243,13,13.1722097853336,2,1.95777027027027,0.0942543103414876
"79",2884955,0,2289,27,"Male","Hispanic","Associate's Degree",3,"Republican",4.33333333333333,1,4,68,"rep","Republican",1,0,"outgroup",5,1,-0.018731361,0.025995148,0.517592952,0.007263787,2,3,71,68.3333333333333,19.7989898732233,13.8684293751431,-0.451762156613586,0,-11.3976808938735,0.994932432432432,2.6666666666667,2.83887645200027,-1,-1.04222972972973,0.0942543103414876
"80",2884955,0,5385,27,"Male","Hispanic","Associate's Degree",3,"Republican",4.33333333333333,1,4,67,"rep","Republican",1,0,"outgroup",7,1,-0.018731361,0.025995148,0.517592952,0.007263787,4,3,60.75,74,10.1775897605147,18.5202591774521,0.0989058124080214,-0.942645724389002,4.5189857727932,-1.00506756756757,-13.25,-13.0777902146664,1,0.95777027027027,0.0942543103414876
"81",3964964,0,135,41,"Male","Caucasian","Master's Degree",1,"Republican",4,0,1,62,"dem","Republican",0,1,"ingroup",4,3,-0.169936326,0.409389455,0.510180851,0.239453129,3,1,69,65,14.1774468787578,NA,NA,-0.567316577993729,-4.7310142272068,1.99493243243243,4,4.17220978533357,2,1.95777027027027,-1.0254023063925
"82",3964964,0,39,41,"Male","Caucasian","Master's Degree",1,"Republican",4,0,1,64,"rep","Republican",1,0,"outgroup",4,3,-0.169936326,0.409389455,0.510180851,0.239453129,2,2,59,67,2.82842712474619,9.89949493661167,0,0,-0.731014227206801,-0.00506756756756757,-8,-7.82779021466643,0,-0.0422297297297297,-1.0254023063925
"83",3964964,1,1208,41,"Male","Caucasian","Master's Degree",1,"Republican",4,0,1,9,"rep","Republican",1,0,"ingroup",4,3,-0.169936326,0.409389455,0.510180851,0.239453129,2,2,75.5,57.5,6.36396103067893,19.0918830920368,0,0,9.2689857727932,-0.00506756756756757,18,18.1722097853336,0,-0.0422297297297297,-1.0254023063925
"84",3964964,0,104,41,"Male","Caucasian","Master's Degree",1,"Republican",4,0,1,61,"rep","Republican",1,0,"outgroup",4,3,-0.169936326,0.409389455,0.510180851,0.239453129,2,2,59,78,12.7279220613579,16.9705627484771,0,0,10.2689857727932,-0.00506756756756757,-19,-18.8277902146664,0,-0.0422297297297297,-1.0254023063925
"85",3964964,0,165,41,"Male","Caucasian","Master's Degree",1,"Republican",4,0,1,46,"rep","Republican",1,0,"outgroup",4,3,-0.169936326,0.409389455,0.510180851,0.239453129,3,1,72,86,22.5166604983954,NA,NA,-0.707106781186548,5.2689857727932,-2.00506756756757,-14,-13.8277902146664,2,1.95777027027027,-1.0254023063925
"86",3964964,1,84,41,"Male","Caucasian","Master's Degree",1,"Republican",4,0,1,6,"dem","Republican",0,1,"outgroup",4,3,-0.169936326,0.409389455,0.510180851,0.239453129,3,1,52.3333333333333,81,16.5025250593154,NA,NA,-0.477965448977094,19.9356524394599,-2.00506756756757,-28.6666666666667,-28.4944568813331,2,1.95777027027027,-1.0254023063925
"87",3964964,1,78,41,"Male","Caucasian","Master's Degree",1,"Republican",4,0,1,63,"dem","Republican",0,1,"outgroup",4,3,-0.169936326,0.409389455,0.510180851,0.239453129,2,2,68.5,71,3.53553390593274,9.89949493661167,0,0,-6.2310142272068,-0.00506756756756757,-2.5,-2.32779021466643,0,-0.0422297297297297,-1.0254023063925
"88",3964964,0,74,41,"Male","Caucasian","Master's Degree",1,"Republican",4,0,1,60,"dem","Republican",0,1,"ingroup",4,3,-0.169936326,0.409389455,0.510180851,0.239453129,1,3,46,60.6666666666667,NA,7.50555349946513,-0.0814283184525234,NA,-23.3976808938735,-2.00506756756757,-14.6666666666667,-14.4944568813331,-2,-2.04222972972973,-1.0254023063925
"89",3964964,1,49,41,"Male","Caucasian","Master's Degree",1,"Republican",4,0,1,59,"dem","Republican",0,1,"outgroup",4,3,-0.169936326,0.409389455,0.510180851,0.239453129,3,1,67,50,1,NA,NA,0,-25.7310142272068,-2.00506756756757,17,17.1722097853336,2,1.95777027027027,-1.0254023063925
"90",3964964,1,694,41,"Male","Caucasian","Master's Degree",1,"Republican",4,0,1,11,"dem","Republican",0,1,"outgroup",4,3,-0.169936326,0.409389455,0.510180851,0.239453129,1,3,67,68.3333333333333,NA,10.4083299973307,0.528004979218189,NA,-7.3976808938735,1.99493243243243,-1.3333333333333,-1.16112354799973,-2,-2.04222972972973,-1.0254023063925
"91",3964964,0,1122,41,"Male","Caucasian","Master's Degree",1,"Republican",4,0,1,7,"rep","Republican",1,0,"outgroup",4,3,-0.169936326,0.409389455,0.510180851,0.239453129,1,3,62,62.6666666666667,NA,14.8436293854749,0.42611338763069,NA,-8.0643475605401,1.99493243243243,-0.6666666666667,-0.494456881333129,-2,-2.04222972972973,-1.0254023063925
"92",3964964,1,45,41,"Male","Caucasian","Master's Degree",1,"Republican",4,0,1,8,"dem","Republican",0,1,"outgroup",4,3,-0.169936326,0.409389455,0.510180851,0.239453129,3,1,49.6666666666667,68,14.2945210949277,NA,NA,-0.405101523736925,9.6023191061265,-2.00506756756757,-18.3333333333333,-18.1611235479997,2,1.95777027027027,-1.0254023063925
"93",3964964,1,253,41,"Male","Caucasian","Master's Degree",1,"Republican",4,0,1,76,"rep","Republican",1,0,"ingroup",4,3,-0.169936326,0.409389455,0.510180851,0.239453129,3,1,77.3333333333333,55,2.88675134594813,NA,NA,-0.707106781186542,13.6023191061265,1.99493243243243,22.3333333333333,22.5055431186669,2,1.95777027027027,-1.0254023063925
"94",3964964,0,112,41,"Male","Caucasian","Master's Degree",1,"Republican",4,0,1,44,"dem","Republican",0,1,"ingroup",4,3,-0.169936326,0.409389455,0.510180851,0.239453129,3,1,59.3333333333333,67,8.08290376865476,NA,NA,-0.707106781186548,-16.3976808938735,1.99493243243243,-7.6666666666667,-7.49445688133313,2,1.95777027027027,-1.0254023063925
"95",3964964,0,240,41,"Male","Caucasian","Master's Degree",1,"Republican",4,0,1,74,"dem","Republican",0,1,"ingroup",4,3,-0.169936326,0.409389455,0.510180851,0.239453129,3,1,55,65,7.81024967590665,NA,NA,-0.694088168075978,-18.7310142272068,1.99493243243243,-10,-9.82779021466643,2,1.95777027027027,-1.0254023063925
"96",3964964,1,45,41,"Male","Caucasian","Master's Degree",1,"Republican",4,0,1,75,"dem","Republican",0,1,"outgroup",4,3,-0.169936326,0.409389455,0.510180851,0.239453129,1,3,46,63.6666666666667,NA,14.9777612924406,-0.487020778846851,NA,8.9356524394599,1.99493243243243,-17.6666666666667,-17.4944568813331,-2,-2.04222972972973,-1.0254023063925
"97",3964964,1,1710,41,"Male","Caucasian","Master's Degree",1,"Republican",4,0,1,65,"dem","Republican",0,1,"outgroup",5,3,-0.169936326,0.409389455,0.510180851,0.239453129,5,0,61,NA,5.70087712549569,NA,NA,0.271545417883639,NA,-5.00506756756757,NA,NA,5,4.95777027027027,-1.0254023063925
"98",3964964,0,253,41,"Male","Caucasian","Master's Degree",1,"Republican",4,0,1,12,"dem","Republican",0,1,"ingroup",4,3,-0.169936326,0.409389455,0.510180851,0.239453129,2,2,74,69,16.9705627484771,22.6274169979695,0,0,-3.7310142272068,-0.00506756756756757,5,5.17220978533357,0,-0.0422297297297297,-1.0254023063925
"99",3964964,1,48,41,"Male","Caucasian","Master's Degree",1,"Republican",4,0,1,79,"dem","Republican",0,1,"outgroup",4,3,-0.169936326,0.409389455,0.510180851,0.239453129,2,2,64.5,67.5,4.94974746830583,12.0208152801713,0,0,-5.7310142272068,-0.00506756756756757,-3,-2.82779021466643,0,-0.0422297297297297,-1.0254023063925
"100",3964964,1,160,41,"Male","Caucasian","Master's Degree",1,"Republican",4,0,1,50,"dem","Republican",0,1,"outgroup",4,3,-0.169936326,0.409389455,0.510180851,0.239453129,0,4,NA,67.75,NA,16.4595463687997,-0.533210256412197,NA,NA,3.99493243243243,NA,NA,-4,-4.04222972972973,-1.0254023063925
"101",3964964,0,739,41,"Male","Caucasian","Master's Degree",1,"Republican",4,0,1,24,"rep","Republican",1,0,"outgroup",4,3,-0.169936326,0.409389455,0.510180851,0.239453129,3,1,56.3333333333333,66,4.93288286231625,NA,NA,0.674555484545764,0.935652439459899,-2.00506756756757,-9.6666666666667,-9.49445688133313,2,1.95777027027027,-1.0254023063925
"102",3964964,1,99,41,"Male","Caucasian","Master's Degree",1,"Republican",4,0,1,73,"rep","Republican",1,0,"ingroup",4,3,-0.169936326,0.409389455,0.510180851,0.239453129,2,2,64,63.5,0,3.53553390593274,0,NA,-8.2310142272068,-0.00506756756756757,0.5,0.672209785333571,0,-0.0422297297297297,-1.0254023063925
"103",3964964,0,1064,41,"Male","Caucasian","Master's Degree",1,"Republican",4,0,1,5,"rep","Republican",1,0,"outgroup",4,3,-0.169936326,0.409389455,0.510180851,0.239453129,2,2,66,61,0,19.7989898732233,0,NA,-13.7310142272068,-0.00506756756756757,5,5.17220978533357,0,-0.0422297297297297,-1.0254023063925
"104",3964964,1,2020,41,"Male","Caucasian","Master's Degree",1,"Republican",4,0,1,70,"dem","Republican",0,1,"outgroup",5,3,-0.169936326,0.409389455,0.510180851,0.239453129,2,3,63.5,64.6666666666667,3.53553390593274,15.502687938978,-0.625259785108886,0,-7.5643475605401,0.994932432432432,-1.1666666666667,-0.994456881333129,-1,-1.04222972972973,-1.0254023063925
"105",3964964,1,157,41,"Male","Caucasian","Master's Degree",1,"Republican",4,0,1,30,"dem","Republican",0,1,"outgroup",4,3,-0.169936326,0.409389455,0.510180851,0.239453129,3,1,59.3333333333333,71,15.8850034099251,NA,NA,-0.703955526253003,2.9356524394599,-2.00506756756757,-11.6666666666667,-11.4944568813331,2,1.95777027027027,-1.0254023063925
"106",3964964,0,1900,41,"Male","Caucasian","Master's Degree",1,"Republican",4,0,1,45,"rep","Republican",1,0,"outgroup",5,3,-0.169936326,0.409389455,0.510180851,0.239453129,2,3,70.5,59,6.36396103067893,9,0,0,-20.2310142272068,0.994932432432432,11.5,11.6722097853336,-1,-1.04222972972973,-1.0254023063925
"107",3964964,1,201,41,"Male","Caucasian","Master's Degree",1,"Republican",4,0,1,10,"dem","Republican",0,1,"outgroup",4,3,-0.169936326,0.409389455,0.510180851,0.239453129,4,0,61,NA,7.87400787401181,NA,NA,-0.728505023009303,NA,-4.00506756756757,NA,NA,4,3.95777027027027,-1.0254023063925
"108",3964964,1,46,41,"Male","Caucasian","Master's Degree",1,"Republican",4,0,1,3,"rep","Republican",1,0,"ingroup",4,3,-0.169936326,0.409389455,0.510180851,0.239453129,2,2,62,51.5,8.48528137423857,4.94974746830583,0,0,1.7689857727932,-0.00506756756756757,10.5,10.6722097853336,0,-0.0422297297297297,-1.0254023063925
"109",3964964,1,446,41,"Male","Caucasian","Master's Degree",1,"Republican",4,0,1,54,"rep","Republican",1,0,"ingroup",4,3,-0.169936326,0.409389455,0.510180851,0.239453129,2,2,60,50.5,5.65685424949238,23.3345237791561,0,0,0.768985772793199,-0.00506756756756757,9.5,9.67220978533357,0,-0.0422297297297297,-1.0254023063925
"110",3964964,1,719,41,"Male","Caucasian","Master's Degree",1,"Republican",4,0,1,51,"rep","Republican",1,0,"ingroup",4,3,-0.169936326,0.409389455,0.510180851,0.239453129,2,2,75,69,15.556349186104,5.65685424949238,0,0,-2.7310142272068,-0.00506756756756757,6,6.17220978533357,0,-0.0422297297297297,-1.0254023063925
"111",3964964,0,1005,41,"Male","Caucasian","Master's Degree",1,"Republican",4,0,1,43,"dem","Republican",0,1,"ingroup",4,3,-0.169936326,0.409389455,0.510180851,0.239453129,2,2,66.5,67,2.12132034355964,1.4142135623731,0,0,-9.2310142272068,-0.00506756756756757,-0.5,-0.327790214666429,0,-0.0422297297297297,-1.0254023063925
"112",3964964,1,225,41,"Male","Caucasian","Master's Degree",1,"Republican",4,0,1,29,"rep","Republican",1,0,"ingroup",4,3,-0.169936326,0.409389455,0.510180851,0.239453129,2,2,72.5,47.5,19.0918830920368,10.6066017177982,0,0,16.2689857727932,-0.00506756756756757,25,25.1722097853336,0,-0.0422297297297297,-1.0254023063925
"113",3964964,0,255,41,"Male","Caucasian","Master's Degree",1,"Republican",4,0,1,23,"dem","Republican",0,1,"ingroup",4,3,-0.169936326,0.409389455,0.510180851,0.239453129,2,2,82.5,62.5,10.6066017177982,4.94974746830583,0,0,11.2689857727932,-0.00506756756756757,20,20.1722097853336,0,-0.0422297297297297,-1.0254023063925
"114",3964964,0,772,41,"Male","Caucasian","Master's Degree",1,"Republican",4,0,1,2,"rep","Republican",1,0,"outgroup",4,3,-0.169936326,0.409389455,0.510180851,0.239453129,2,2,61,65,9.89949493661167,9.89949493661167,0,0,-4.7310142272068,-0.00506756756756757,-4,-3.82779021466643,0,-0.0422297297297297,-1.0254023063925
"115",3964964,0,312,41,"Male","Caucasian","Master's Degree",1,"Republican",4,0,1,27,"rep","Republican",1,0,"outgroup",4,3,-0.169936326,0.409389455,0.510180851,0.239453129,2,2,61,64,9.89949493661167,0,NA,0,-5.7310142272068,-0.00506756756756757,-3,-2.82779021466643,0,-0.0422297297297297,-1.0254023063925
"116",3964964,0,48,41,"Male","Caucasian","Master's Degree",1,"Republican",4,0,1,26,"dem","Republican",0,1,"ingroup",4,3,-0.169936326,0.409389455,0.510180851,0.239453129,3,1,66.3333333333333,48,10.785793124909,NA,NA,-0.646062393204912,9.6023191061265,1.99493243243243,18.3333333333333,18.5055431186669,2,1.95777027027027,-1.0254023063925
"117",3964964,0,48,41,"Male","Caucasian","Master's Degree",1,"Republican",4,0,1,47,"dem","Republican",0,1,"ingroup",4,3,-0.169936326,0.409389455,0.510180851,0.239453129,3,1,64,59,6.92820323027551,NA,NA,0.707106781186547,-3.7310142272068,1.99493243243243,5,5.17220978533357,2,1.95777027027027,-1.0254023063925
"118",3964964,1,0,41,"Male","Caucasian","Master's Degree",1,"Republican",4,0,1,68,"dem","Republican",0,1,"outgroup",4,3,-0.169936326,0.409389455,0.510180851,0.239453129,3,1,65.3333333333333,68,3.78593889720018,NA,NA,-0.652012117044041,-6.0643475605401,-2.00506756756757,-2.6666666666667,-2.49445688133313,2,1.95777027027027,-1.0254023063925
"119",3964964,0,167,41,"Male","Caucasian","Master's Degree",1,"Republican",4,0,1,80,"rep","Republican",1,0,"outgroup",4,3,-0.169936326,0.409389455,0.510180851,0.239453129,2,2,54.5,53,16.2634559672906,4.24264068711928,0,0,-10.2310142272068,-0.00506756756756757,1.5,1.67220978533357,0,-0.0422297297297297,-1.0254023063925
"120",3964964,0,0,41,"Male","Caucasian","Master's Degree",1,"Republican",4,0,1,28,"rep","Republican",1,0,"outgroup",4,3,-0.169936326,0.409389455,0.510180851,0.239453129,1,3,68,62.3333333333333,NA,13.4288247189891,-0.637182529724636,NA,-14.3976808938735,1.99493243243243,5.6666666666667,5.83887645200027,-2,-2.04222972972973,-1.0254023063925
"121",3964964,1,87,41,"Male","Caucasian","Master's Degree",1,"Republican",4,0,1,56,"dem","Republican",0,1,"outgroup",4,3,-0.169936326,0.409389455,0.510180851,0.239453129,3,1,51,47,6.08276253029822,NA,NA,-0.685667537488922,-12.7310142272068,-2.00506756756757,4,4.17220978533357,2,1.95777027027027,-1.0254023063925
"122",3964964,1,181,41,"Male","Caucasian","Master's Degree",1,"Republican",4,0,1,37,"rep","Republican",1,0,"ingroup",4,3,-0.169936326,0.409389455,0.510180851,0.239453129,2,2,70.5,47,0.707106781186548,4.24264068711928,0,0,14.7689857727932,-0.00506756756756757,23.5,23.6722097853336,0,-0.0422297297297297,-1.0254023063925
"123",3964964,1,343,41,"Male","Caucasian","Master's Degree",1,"Republican",4,0,1,71,"dem","Republican",0,1,"outgroup",4,3,-0.169936326,0.409389455,0.510180851,0.239453129,2,2,71.5,66.5,13.4350288425444,12.0208152801713,0,0,-13.7310142272068,-0.00506756756756757,5,5.17220978533357,0,-0.0422297297297297,-1.0254023063925
"124",3964964,1,0,41,"Male","Caucasian","Master's Degree",1,"Republican",4,0,1,72,"dem","Republican",0,1,"outgroup",4,3,-0.169936326,0.409389455,0.510180851,0.239453129,2,2,54.5,68.5,9.19238815542512,9.19238815542512,0,0,5.2689857727932,-0.00506756756756757,-14,-13.8277902146664,0,-0.0422297297297297,-1.0254023063925
"125",3964964,1,86,41,"Male","Caucasian","Master's Degree",1,"Republican",4,0,1,38,"rep","Republican",1,0,"ingroup",4,3,-0.169936326,0.409389455,0.510180851,0.239453129,0,4,NA,59.25,NA,5.31507290636732,-0.114392793176345,NA,NA,-4.00506756756757,NA,NA,-4,-4.04222972972973,-1.0254023063925
"126",3964964,0,918,41,"Male","Caucasian","Master's Degree",1,"Republican",4,0,1,25,"rep","Republican",1,0,"outgroup",4,3,-0.169936326,0.409389455,0.510180851,0.239453129,1,3,62,72.6666666666667,NA,8.50490054811538,-0.0718917014929186,NA,1.9356524394599,1.99493243243243,-10.6666666666667,-10.4944568813331,-2,-2.04222972972973,-1.0254023063925
"127",3964964,0,165,41,"Male","Caucasian","Master's Degree",1,"Republican",4,0,1,20,"rep","Republican",1,0,"outgroup",4,3,-0.169936326,0.409389455,0.510180851,0.239453129,1,3,47,69,NA,11.7898261225516,-0.437199136211546,NA,13.2689857727932,1.99493243243243,-22,-21.8277902146664,-2,-2.04222972972973,-1.0254023063925
"128",3964964,1,517,41,"Male","Caucasian","Master's Degree",1,"Republican",4,0,1,19,"rep","Republican",1,0,"ingroup",4,3,-0.169936326,0.409389455,0.510180851,0.239453129,2,2,70,58.5,8.48528137423857,12.0208152801713,0,0,2.7689857727932,-0.00506756756756757,11.5,11.6722097853336,0,-0.0422297297297297,-1.0254023063925
"129",3964964,0,33,41,"Male","Caucasian","Master's Degree",1,"Republican",4,0,1,13,"rep","Republican",1,0,"outgroup",4,3,-0.169936326,0.409389455,0.510180851,0.239453129,3,1,68,63,2.64575131106459,NA,NA,0.595170064139497,-13.7310142272068,-2.00506756756757,5,5.17220978533357,2,1.95777027027027,-1.0254023063925
"130",3964964,1,0,41,"Male","Caucasian","Master's Degree",1,"Republican",4,0,1,69,"dem","Republican",0,1,"outgroup",4,3,-0.169936326,0.409389455,0.510180851,0.239453129,2,2,49.5,69.5,7.77817459305202,2.12132034355964,0,0,11.2689857727932,-0.00506756756756757,-20,-19.8277902146664,0,-0.0422297297297297,-1.0254023063925
"131",3964964,1,64,41,"Male","Caucasian","Master's Degree",1,"Republican",4,0,1,34,"rep","Republican",1,0,"ingroup",4,3,-0.169936326,0.409389455,0.510180851,0.239453129,3,1,73.6666666666667,47,13.0511813003013,NA,NA,-0.542726939011611,17.9356524394599,1.99493243243243,26.6666666666667,26.8388764520003,2,1.95777027027027,-1.0254023063925
"132",3964964,1,377,41,"Male","Caucasian","Master's Degree",1,"Republican",4,0,1,48,"rep","Republican",1,0,"ingroup",4,3,-0.169936326,0.409389455,0.510180851,0.239453129,2,2,68.5,60.5,7.77817459305202,28.9913780286484,0,0,-0.731014227206801,-0.00506756756756757,8,8.17220978533357,0,-0.0422297297297297,-1.0254023063925
"133",3964964,0,326,41,"Male","Caucasian","Master's Degree",1,"Republican",4,0,1,42,"dem","Republican",0,1,"ingroup",4,3,-0.169936326,0.409389455,0.510180851,0.239453129,2,2,58,59,5.65685424949238,8.48528137423857,0,0,-9.7310142272068,-0.00506756756756757,-1,-0.827790214666429,0,-0.0422297297297297,-1.0254023063925
"134",3964964,1,226,41,"Male","Caucasian","Master's Degree",1,"Republican",4,0,1,58,"rep","Republican",1,0,"ingroup",4,3,-0.169936326,0.409389455,0.510180851,0.239453129,2,2,69.5,60,14.8492424049175,7.07106781186548,0,0,0.768985772793199,-0.00506756756756757,9.5,9.67220978533357,0,-0.0422297297297297,-1.0254023063925
"135",3964964,0,0,41,"Male","Caucasian","Master's Degree",1,"Republican",4,0,1,4,"dem","Republican",0,1,"ingroup",4,3,-0.169936326,0.409389455,0.510180851,0.239453129,1,3,64,45.3333333333333,NA,3.78593889720018,-0.652012117044048,NA,9.9356524394599,-2.00506756756757,18.6666666666667,18.8388764520003,-2,-2.04222972972973,-1.0254023063925
"136",3964964,0,146,41,"Male","Caucasian","Master's Degree",1,"Republican",4,0,1,67,"rep","Republican",1,0,"outgroup",4,3,-0.169936326,0.409389455,0.510180851,0.239453129,1,3,62,62.3333333333333,NA,14.5716619962629,-0.207375549938672,NA,-8.3976808938735,1.99493243243243,-0.3333333333333,-0.16112354799973,-2,-2.04222972972973,-1.0254023063925
"137",3964964,1,79,41,"Male","Caucasian","Master's Degree",1,"Republican",4,0,1,18,"rep","Republican",1,0,"ingroup",4,3,-0.169936326,0.409389455,0.510180851,0.239453129,1,3,59,65.3333333333333,NA,4.04145188432738,-0.294799620144825,NA,-15.0643475605401,-2.00506756756757,-6.3333333333333,-6.16112354799973,-2,-2.04222972972973,-1.0254023063925
"138",3964964,1,295,41,"Male","Caucasian","Master's Degree",1,"Republican",4,0,1,49,"dem","Republican",0,1,"outgroup",4,3,-0.169936326,0.409389455,0.510180851,0.239453129,2,2,59,64.5,8.48528137423857,16.2634559672906,0,0,-3.2310142272068,-0.00506756756756757,-5.5,-5.32779021466643,0,-0.0422297297297297,-1.0254023063925
"139",3964964,0,52,41,"Male","Caucasian","Master's Degree",1,"Republican",4,0,1,52,"rep","Republican",1,0,"outgroup",4,3,-0.169936326,0.409389455,0.510180851,0.239453129,0,4,NA,71,NA,5.03322295684717,-0.652023664684754,NA,NA,3.99493243243243,NA,NA,-4,-4.04222972972973,-1.0254023063925
"140",3964964,0,768,41,"Male","Caucasian","Master's Degree",1,"Republican",4,0,1,1,"dem","Republican",0,1,"ingroup",4,3,-0.169936326,0.409389455,0.510180851,0.239453129,2,2,71,64,2.82842712474619,4.24264068711928,0,0,-1.7310142272068,-0.00506756756756757,7,7.17220978533357,0,-0.0422297297297297,-1.0254023063925
"141",3964964,1,891,41,"Male","Caucasian","Master's Degree",1,"Republican",4,0,1,66,"rep","Republican",1,0,"ingroup",4,3,-0.169936326,0.409389455,0.510180851,0.239453129,3,1,62,62,7.93725393319377,NA,NA,0.595170064139497,-8.7310142272068,1.99493243243243,0,0.172209785333571,2,1.95777027027027,-1.0254023063925
"142",3964964,0,710,41,"Male","Caucasian","Master's Degree",1,"Republican",4,0,1,17,"dem","Republican",0,1,"ingroup",4,3,-0.169936326,0.409389455,0.510180851,0.239453129,3,1,74.3333333333333,65,13.7961347243833,NA,NA,0.60406041761322,0.602319106126499,1.99493243243243,9.3333333333333,9.50554311866687,2,1.95777027027027,-1.0254023063925
"143",3964964,1,87,41,"Male","Caucasian","Master's Degree",1,"Republican",4,0,1,22,"rep","Republican",1,0,"ingroup",4,3,-0.169936326,0.409389455,0.510180851,0.239453129,0,4,NA,59.75,NA,22.9401394939089,0.0874592096715219,NA,NA,-4.00506756756757,NA,NA,-4,-4.04222972972973,-1.0254023063925
"144",3964964,0,0,41,"Male","Caucasian","Master's Degree",1,"Republican",4,0,1,53,"dem","Republican",0,1,"ingroup",4,3,-0.169936326,0.409389455,0.510180851,0.239453129,1,3,71,59.3333333333333,NA,10.6926766215636,0.381801774160605,NA,2.9356524394599,-2.00506756756757,11.6666666666667,11.8388764520003,-2,-2.04222972972973,-1.0254023063925
"145",3964964,1,232,41,"Male","Caucasian","Master's Degree",1,"Republican",4,0,1,39,"rep","Republican",1,0,"ingroup",4,3,-0.169936326,0.409389455,0.510180851,0.239453129,3,1,58,62,7.54983443527075,NA,NA,-0.239063146929545,-12.7310142272068,1.99493243243243,-4,-3.82779021466643,2,1.95777027027027,-1.0254023063925
"146",3964964,1,42,41,"Male","Caucasian","Master's Degree",1,"Republican",4,0,1,36,"rep","Republican",1,0,"ingroup",4,3,-0.169936326,0.409389455,0.510180851,0.239453129,3,1,67.3333333333333,55,7.23417813807024,NA,NA,-0.691936526985646,3.6023191061265,1.99493243243243,12.3333333333333,12.5055431186669,2,1.95777027027027,-1.0254023063925
"147",3964964,0,41,41,"Male","Caucasian","Master's Degree",1,"Republican",4,0,1,77,"rep","Republican",1,0,"outgroup",4,3,-0.169936326,0.409389455,0.510180851,0.239453129,3,1,54.3333333333333,76,14.5028732785381,NA,NA,0.0422019092935808,12.9356524394599,-2.00506756756757,-21.6666666666667,-21.4944568813331,2,1.95777027027027,-1.0254023063925
"148",3964964,1,1145,41,"Male","Caucasian","Master's Degree",1,"Republican",4,0,1,21,"rep","Republican",1,0,"ingroup",4,3,-0.169936326,0.409389455,0.510180851,0.239453129,2,2,62,59,2.82842712474619,16.9705627484771,0,0,-5.7310142272068,-0.00506756756756757,3,3.17220978533357,0,-0.0422297297297297,-1.0254023063925
"149",3964964,1,140,41,"Male","Caucasian","Master's Degree",1,"Republican",4,0,1,14,"dem","Republican",0,1,"outgroup",4,3,-0.169936326,0.409389455,0.510180851,0.239453129,4,0,53.75,NA,9.9121138007995,NA,NA,0.132056032991516,NA,-4.00506756756757,NA,NA,4,3.95777027027027,-1.0254023063925
"150",3964964,0,0,41,"Male","Caucasian","Master's Degree",1,"Republican",4,0,1,33,"rep","Republican",1,0,"outgroup",4,3,-0.169936326,0.409389455,0.510180851,0.239453129,4,0,61.75,NA,6.13052471924984,NA,NA,-0.862621697657044,NA,-4.00506756756757,NA,NA,4,3.95777027027027,-1.0254023063925
"151",3964964,0,4,41,"Male","Caucasian","Master's Degree",1,"Republican",4,0,1,55,"dem","Republican",0,1,"ingroup",4,3,-0.169936326,0.409389455,0.510180851,0.239453129,1,3,71,64.3333333333333,NA,22.1208800307161,-0.218245671803878,NA,-2.0643475605401,-2.00506756756757,6.6666666666667,6.83887645200027,-2,-2.04222972972973,-1.0254023063925
"152",3964964,0,155,41,"Male","Caucasian","Master's Degree",1,"Republican",4,0,1,78,"rep","Republican",1,0,"outgroup",4,3,-0.169936326,0.409389455,0.510180851,0.239453129,1,3,59,62.3333333333333,NA,15.3079500042734,0.703713574538579,NA,-5.3976808938735,1.99493243243243,-3.3333333333333,-3.16112354799973,-2,-2.04222972972973,-1.0254023063925
"153",3964964,0,98,41,"Male","Caucasian","Master's Degree",1,"Republican",4,0,1,40,"dem","Republican",0,1,"ingroup",4,3,-0.169936326,0.409389455,0.510180851,0.239453129,2,2,62,63.5,2.82842712474619,6.36396103067893,0,0,-10.2310142272068,-0.00506756756756757,-1.5,-1.32779021466643,0,-0.0422297297297297,-1.0254023063925
"154",3964964,1,24,41,"Male","Caucasian","Master's Degree",1,"Republican",4,0,1,32,"rep","Republican",1,0,"ingroup",4,3,-0.169936326,0.409389455,0.510180851,0.239453129,2,2,62,63.5,4.24264068711928,6.36396103067893,0,0,-10.2310142272068,-0.00506756756756757,-1.5,-1.32779021466643,0,-0.0422297297297297,-1.0254023063925
"155",3964964,0,43,41,"Male","Caucasian","Master's Degree",1,"Republican",4,0,1,31,"rep","Republican",1,0,"outgroup",4,3,-0.169936326,0.409389455,0.510180851,0.239453129,1,3,44,76,NA,11.3578166916005,-0.652012117044046,NA,23.2689857727932,1.99493243243243,-32,-31.8277902146664,-2,-2.04222972972973,-1.0254023063925
"156",3964964,0,277,41,"Male","Caucasian","Master's Degree",1,"Republican",4,0,1,41,"dem","Republican",0,1,"ingroup",4,3,-0.169936326,0.409389455,0.510180851,0.239453129,0,4,NA,56.5,NA,12.7148207485071,-0.471865177381435,NA,NA,-4.00506756756757,NA,NA,-4,-4.04222972972973,-1.0254023063925
"157",3964964,1,670,41,"Male","Caucasian","Master's Degree",1,"Republican",4,0,1,15,"rep","Republican",1,0,"ingroup",4,3,-0.169936326,0.409389455,0.510180851,0.239453129,3,1,62.3333333333333,57,11.1504857891185,NA,NA,0.606120142113734,-3.3976808938735,1.99493243243243,5.3333333333333,5.50554311866687,2,1.95777027027027,-1.0254023063925
"158",3964964,1,130,41,"Male","Caucasian","Master's Degree",1,"Republican",4,0,1,57,"rep","Republican",1,0,"ingroup",4,3,-0.169936326,0.409389455,0.510180851,0.239453129,1,3,59,58,NA,10.5356537528527,0.17280054407865,NA,-7.7310142272068,-2.00506756756757,1,1.17220978533357,-2,-2.04222972972973,-1.0254023063925
"159",3964964,1,1337,41,"Male","Caucasian","Master's Degree",1,"Republican",4,0,1,35,"dem","Republican",0,1,"outgroup",4,3,-0.169936326,0.409389455,0.510180851,0.239453129,2,2,68,76,0,0,NA,NA,-0.731014227206801,-0.00506756756756757,-8,-7.82779021466643,0,-0.0422297297297297,-1.0254023063925
"160",3964964,1,0,41,"Male","Caucasian","Master's Degree",1,"Republican",4,0,1,16,"rep","Republican",1,0,"ingroup",4,3,-0.169936326,0.409389455,0.510180851,0.239453129,1,3,54,56.6666666666667,NA,3.78593889720018,0.652012117044048,NA,-11.3976808938735,-2.00506756756757,-2.6666666666667,-2.49445688133313,-2,-2.04222972972973,-1.0254023063925
"161",12919430,1,1931,25,"Female","Caucasian","Master's Degree",2,"Republican",3.33333333333333,0,3,59,"dem","Republican",0,1,"outgroup",5,2,-0.505410383,0.901826067,0.517500582,0.396415684,4,1,52,68,16.1864140562386,NA,NA,0.78634769886204,7.2689857727932,-3.00506756756757,-16,-15.8277902146664,3,2.95777027027027,-0.738778049687144
"162",12919430,1,2469,25,"Female","Caucasian","Master's Degree",2,"Republican",3.33333333333333,0,3,64,"dem","Republican",0,1,"outgroup",5,2,-0.505410383,0.901826067,0.517500582,0.396415684,2,3,55.5,70,2.12132034355964,1.73205080756888,-0.707106781186547,0,5.7689857727932,0.994932432432432,-14.5,-14.3277902146664,-1,-1.04222972972973,-0.738778049687144
"163",12919430,1,4952,25,"Female","Caucasian","Master's Degree",2,"Republican",3.33333333333333,0,3,65,"dem","Republican",0,1,"outgroup",7,2,-0.505410383,0.901826067,0.517500582,0.396415684,4,3,50.75,74.6666666666667,8.92094912738176,18.5831464863551,-0.483821180991123,-0.0823381711051358,15.1856524394599,-1.00506756756757,-23.9166666666667,-23.7444568813331,1,0.95777027027027,-0.738778049687144
"164",12919430,0,3554,25,"Female","Caucasian","Master's Degree",2,"Republican",3.33333333333333,0,3,48,"rep","Republican",1,0,"outgroup",6,2,-0.505410383,0.901826067,0.517500582,0.396415684,4,2,57.75,70.5,10.1118742080783,14.8492424049175,0,-0.960026962940347,4.0189857727932,-2.00506756756757,-12.75,-12.5777902146664,2,1.95777027027027,-0.738778049687144
"165",12919430,1,987,25,"Female","Caucasian","Master's Degree",2,"Republican",3.33333333333333,0,3,61,"dem","Republican",0,1,"outgroup",4,2,-0.505410383,0.901826067,0.517500582,0.396415684,1,3,37,65,NA,11,0,NA,19.2689857727932,1.99493243243243,-28,-27.8277902146664,-2,-2.04222972972973,-0.738778049687144
"166",12919430,0,6118,25,"Female","Caucasian","Master's Degree",2,"Republican",3.33333333333333,0,3,74,"dem","Republican",0,1,"ingroup",8,2,-0.505410383,0.901826067,0.517500582,0.396415684,1,7,59,58.5714285714286,NA,8.9416095280649,-0.0825118494729569,NA,-8.3024427986354,-6.00506756756757,0.428571428571402,0.600781213904973,-6,-6.04222972972973,-0.738778049687144
"167",12919430,1,5747,25,"Female","Caucasian","Master's Degree",2,"Republican",3.33333333333333,0,3,66,"rep","Republican",1,0,"ingroup",7,2,-0.505410383,0.901826067,0.517500582,0.396415684,5,2,68.4,48.5,13.3154046127033,6.36396103067893,0,-0.0643308924021878,11.1689857727932,2.99493243243243,19.9,20.0722097853336,3,2.95777027027027,-0.738778049687144
"168",12919430,1,2314,25,"Female","Caucasian","Master's Degree",2,"Republican",3.33333333333333,0,3,60,"rep","Republican",1,0,"ingroup",5,2,-0.505410383,0.901826067,0.517500582,0.396415684,3,2,68,59,1.73205080756888,2.82842712474619,0,-0.707106781186547,0.268985772793199,0.994932432432432,9,9.17220978533357,1,0.95777027027027,-0.738778049687144
"169",12919430,1,1003,25,"Female","Caucasian","Master's Degree",2,"Republican",3.33333333333333,0,3,14,"rep","Republican",1,0,"ingroup",4,2,-0.505410383,0.901826067,0.517500582,0.396415684,2,2,67,48,5.65685424949238,0,NA,0,10.2689857727932,-0.00506756756756757,19,19.1722097853336,0,-0.0422297297297297,-0.738778049687144
"170",12919430,1,6849,25,"Female","Caucasian","Master's Degree",2,"Republican",3.33333333333333,0,3,15,"dem","Republican",0,1,"outgroup",8,2,-0.505410383,0.901826067,0.517500582,0.396415684,4,4,57.75,64.5,11.9826263120125,6.80685928555405,0.691975716731717,-0.323909089896897,-1.9810142272068,-0.00506756756756757,-6.75,-6.57779021466643,0,-0.0422297297297297,-0.738778049687144
"171",12919430,1,9430,25,"Female","Caucasian","Master's Degree",2,"Republican",3.33333333333333,0,3,7,"rep","Republican",1,0,"ingroup",10,2,-0.505410383,0.901826067,0.517500582,0.396415684,5,5,67,65.2,9.13783344124853,13.8996402831152,0.227244702858796,0.507724981247082,-6.9310142272068,-0.00506756756756757,1.8,1.97220978533357,0,-0.0422297297297297,-0.738778049687144
"172",12919430,1,3290,25,"Female","Caucasian","Master's Degree",2,"Republican",3.33333333333333,0,3,73,"dem","Republican",0,1,"outgroup",6,2,-0.505410383,0.901826067,0.517500582,0.396415684,3,3,48.3333333333333,68,7.63762615825973,10.5830052442584,-0.595170064139497,-0.381801774160607,10.9356524394599,-0.00506756756756757,-19.6666666666667,-19.4944568813331,0,-0.0422297297297297,-0.738778049687144
"173",12919430,1,1647,25,"Female","Caucasian","Master's Degree",2,"Republican",3.33333333333333,0,3,11,"dem","Republican",0,1,"outgroup",5,2,-0.505410383,0.901826067,0.517500582,0.396415684,2,3,61,67,5.65685424949238,7.54983443527075,0.239063146929545,0,-2.7310142272068,0.994932432432432,-6,-5.82779021466643,-1,-1.04222972972973,-0.738778049687144
"174",12919430,1,3738,25,"Female","Caucasian","Master's Degree",2,"Republican",3.33333333333333,0,3,47,"rep","Republican",1,0,"ingroup",6,2,-0.505410383,0.901826067,0.517500582,0.396415684,3,3,65.3333333333333,57.6666666666667,3.05505046330389,13.2790561913614,0.707106781186548,-0.381801774160601,-1.0643475605402,-0.00506756756756757,7.6666666666666,7.83887645200017,0,-0.0422297297297297,-0.738778049687144
"175",12919430,0,11609,25,"Female","Caucasian","Master's Degree",2,"Republican",3.33333333333333,0,3,10,"rep","Republican",1,0,"outgroup",11,2,-0.505410383,0.901826067,0.517500582,0.396415684,4,7,65.75,64.7142857142857,12.0933866224478,5.64843003893665,-0.131615283677453,-1.00582516496137,-9.76672851292111,2.99493243243243,1.03571428571431,1.20792407104788,-3,-3.04222972972973,-0.738778049687144
"176",12919430,1,6885,25,"Female","Caucasian","Master's Degree",2,"Republican",3.33333333333333,0,3,20,"rep","Republican",1,0,"ingroup",8,2,-0.505410383,0.901826067,0.517500582,0.396415684,2,6,73,56.8333333333333,18.3847763108502,13.1212296171764,-0.901028849561318,0,7.4356524394599,-4.00506756756757,16.1666666666667,16.3388764520003,-4,-4.04222972972973,-0.738778049687144
"177",12919430,1,6887,25,"Female","Caucasian","Master's Degree",2,"Republican",3.33333333333333,0,3,63,"dem","Republican",0,1,"outgroup",8,2,-0.505410383,0.901826067,0.517500582,0.396415684,6,2,57.3333333333333,65,9.58471004604034,4.24264068711928,0,-0.272097487858803,-1.0643475605401,-4.00506756756757,-7.6666666666667,-7.49445688133313,4,3.95777027027027,-0.738778049687144
"178",12919430,1,1014,25,"Female","Caucasian","Master's Degree",2,"Republican",3.33333333333333,0,3,76,"dem","Republican",0,1,"outgroup",4,2,-0.505410383,0.901826067,0.517500582,0.396415684,2,2,66,70.5,0,9.19238815542512,0,NA,-4.2310142272068,-0.00506756756756757,-4.5,-4.32779021466643,0,-0.0422297297297297,-0.738778049687144
"179",12919430,1,3675,25,"Female","Caucasian","Master's Degree",2,"Republican",3.33333333333333,0,3,77,"dem","Republican",0,1,"outgroup",6,2,-0.505410383,0.901826067,0.517500582,0.396415684,4,2,64.5,82,14.0593978059754,15.556349186104,0,0.972265930475436,8.7689857727932,-2.00506756756757,-17.5,-17.3277902146664,2,1.95777027027027,-0.738778049687144
"180",12919430,1,10452,25,"Female","Caucasian","Master's Degree",2,"Republican",3.33333333333333,0,3,40,"rep","Republican",1,0,"ingroup",10,2,-0.505410383,0.901826067,0.517500582,0.396415684,4,6,61,57,10.8627804912002,10.1784085199996,-0.260542467619997,0.608966010735675,-4.7310142272068,-2.00506756756757,4,4.17220978533357,-2,-2.04222972972973,-0.738778049687144
"181",12919430,1,3777,25,"Female","Caucasian","Master's Degree",2,"Republican",3.33333333333333,0,3,70,"dem","Republican",0,1,"outgroup",6,2,-0.505410383,0.901826067,0.517500582,0.396415684,3,3,65.3333333333333,69.6666666666667,0.577350269189626,8.14452781524708,0.659439609664586,0.707106781186578,-4.3976808938734,-0.00506756756756757,-4.3333333333334,-4.16112354799983,0,-0.0422297297297297,-0.738778049687144
"182",12919430,1,3056,25,"Female","Caucasian","Master's Degree",2,"Republican",3.33333333333333,0,3,27,"dem","Republican",0,1,"outgroup",6,2,-0.505410383,0.901826067,0.517500582,0.396415684,3,3,52,54,5.56776436283002,3.46410161513775,-0.707106781186547,-0.319312266578753,-6.7310142272068,-0.00506756756756757,-2,-1.82779021466643,0,-0.0422297297297297,-0.738778049687144
"183",12919430,1,5457,25,"Female","Caucasian","Master's Degree",2,"Republican",3.33333333333333,0,3,54,"rep","Republican",1,0,"ingroup",7,2,-0.505410383,0.901826067,0.517500582,0.396415684,3,4,73.3333333333333,59.75,8.62167810425171,7.08872343937891,-0.585521880911645,-0.341864168311527,4.8523191061265,-1.00506756756757,13.5833333333333,13.7555431186669,-1,-1.04222972972973,-0.738778049687144
"184",12919430,1,2005,25,"Female","Caucasian","Master's Degree",2,"Republican",3.33333333333333,0,3,12,"dem","Republican",0,1,"outgroup",5,2,-0.505410383,0.901826067,0.517500582,0.396415684,2,3,55.5,66.6666666666667,7.77817459305202,8.32666399786453,0.528004979218186,0,2.4356524394599,0.994932432432432,-11.1666666666667,-10.9944568813331,-1,-1.04222972972973,-0.738778049687144
"185",12919430,1,5473,25,"Female","Caucasian","Master's Degree",2,"Republican",3.33333333333333,0,3,39,"rep","Republican",1,0,"ingroup",7,2,-0.505410383,0.901826067,0.517500582,0.396415684,3,4,68.3333333333333,63.5,19.3476958145753,11.0905365064094,0.0643317393145478,-0.704982274339025,-3.8976808938735,-1.00506756756757,4.8333333333333,5.00554311866687,-1,-1.04222972972973,-0.738778049687144
"186",12919430,0,3601,25,"Female","Caucasian","Master's Degree",2,"Republican",3.33333333333333,0,3,51,"dem","Republican",0,1,"ingroup",6,2,-0.505410383,0.901826067,0.517500582,0.396415684,3,3,58.3333333333333,76,6.80685928555405,8.66025403784439,-0.707106781186547,0.555748967876573,-26.3976808938735,-0.00506756756756757,-17.6666666666667,-17.4944568813331,0,-0.0422297297297297,-0.738778049687144
"187",12919430,0,2261,25,"Female","Caucasian","Master's Degree",2,"Republican",3.33333333333333,0,3,9,"dem","Republican",0,1,"ingroup",5,2,-0.505410383,0.901826067,0.517500582,0.396415684,2,3,62,66.6666666666667,4.24264068711928,16.2583311976763,0.562523192705496,0,-13.3976808938735,-1.00506756756757,-4.6666666666667,-4.49445688133313,-1,-1.04222972972973,-0.738778049687144
"188",12919430,1,2679,25,"Female","Caucasian","Master's Degree",2,"Republican",3.33333333333333,0,3,53,"dem","Republican",0,1,"outgroup",5,2,-0.505410383,0.901826067,0.517500582,0.396415684,1,4,62,72.75,NA,8.61684396980704,-1.05873007115858,NA,2.0189857727932,2.99493243243243,-10.75,-10.5777902146664,-3,-3.04222972972973,-0.738778049687144
"189",12919430,1,1465,25,"Female","Caucasian","Master's Degree",2,"Republican",3.33333333333333,0,3,13,"rep","Republican",1,0,"ingroup",4,2,-0.505410383,0.901826067,0.517500582,0.396415684,2,2,68.5,44,3.53553390593274,5.65685424949238,0,0,15.7689857727932,-0.00506756756756757,24.5,24.6722097853336,0,-0.0422297297297297,-0.738778049687144
"190",12919430,1,5113,25,"Female","Caucasian","Master's Degree",2,"Republican",3.33333333333333,0,3,55,"dem","Republican",0,1,"outgroup",7,2,-0.505410383,0.901826067,0.517500582,0.396415684,3,4,51.6666666666667,64,12.8582010146573,18.3121089264272,0.104927295299595,-0.630903856710623,3.6023191061265,0.994932432432432,-12.3333333333333,-12.1611235479997,-1,-1.04222972972973,-0.738778049687144
"191",12919430,1,6696,25,"Female","Caucasian","Master's Degree",2,"Republican",3.33333333333333,0,3,75,"dem","Republican",0,1,"outgroup",8,2,-0.505410383,0.901826067,0.517500582,0.396415684,2,6,53,65.6666666666667,12.7279220613579,10.670832519849,-0.717723678850811,0,3.9356524394599,3.99493243243243,-12.6666666666667,-12.4944568813331,-4,-4.04222972972973,-0.738778049687144
"192",12919430,1,6036,25,"Female","Caucasian","Master's Degree",2,"Republican",3.33333333333333,0,3,41,"rep","Republican",1,0,"ingroup",8,2,-0.505410383,0.901826067,0.517500582,0.396415684,2,6,63.5,61.1666666666667,6.36396103067893,15.3416644034038,0.33422652789548,0,-6.3976808938735,-4.00506756756757,2.3333333333333,2.50554311866687,-4,-4.04222972972973,-0.738778049687144
"193",12919430,1,3435,25,"Female","Caucasian","Master's Degree",2,"Republican",3.33333333333333,0,3,8,"dem","Republican",0,1,"outgroup",6,2,-0.505410383,0.901826067,0.517500582,0.396415684,3,3,51.6666666666667,60.6666666666667,7.57187779440036,5.77350269189626,-0.707106781186546,-0.652012117044045,0.268985772793199,-0.00506756756756757,-9,-8.82779021466643,0,-0.0422297297297297,-0.738778049687144
"194",12919430,1,4997,25,"Female","Caucasian","Master's Degree",2,"Republican",3.33333333333333,0,3,6,"rep","Republican",1,0,"ingroup",7,2,-0.505410383,0.901826067,0.517500582,0.396415684,5,2,66.4,51,7.23187389270582,24.0416305603426,0,-0.0867286492819583,6.6689857727932,2.99493243243243,15.4,15.5722097853336,3,2.95777027027027,-0.738778049687144
"195",12919430,1,6342,25,"Female","Caucasian","Master's Degree",2,"Republican",3.33333333333333,0,3,26,"rep","Republican",1,0,"ingroup",8,2,-0.505410383,0.901826067,0.517500582,0.396415684,2,6,69,55.6666666666667,8.48528137423857,16.2316563131021,0.525708869320265,0,4.6023191061265,-4.00506756756757,13.3333333333333,13.5055431186669,-4,-4.04222972972973,-0.738778049687144
"196",12919430,1,11502,25,"Female","Caucasian","Master's Degree",2,"Republican",3.33333333333333,0,3,25,"dem","Republican",0,1,"outgroup",11,2,-0.505410383,0.901826067,0.517500582,0.396415684,8,3,59.625,70.6666666666667,11.6611381458734,14.1891977691952,0.333066546426974,0.725247615411246,2.3106524394599,-5.00506756756757,-11.0416666666667,-10.8694568813331,5,4.95777027027027,-0.738778049687144
"197",12919430,1,2690,25,"Female","Caucasian","Master's Degree",2,"Republican",3.33333333333333,0,3,28,"rep","Republican",1,0,"ingroup",5,2,-0.505410383,0.901826067,0.517500582,0.396415684,3,2,62.3333333333333,55.5,11.5902257671425,2.12132034355964,0,-0.258713531374937,-1.8976808938735,0.994932432432432,6.8333333333333,7.00554311866687,1,0.95777027027027,-0.738778049687144
"198",12919430,1,5714,25,"Female","Caucasian","Master's Degree",2,"Republican",3.33333333333333,0,3,29,"dem","Republican",0,1,"outgroup",7,2,-0.505410383,0.901826067,0.517500582,0.396415684,3,4,64.3333333333333,65.25,14.4683562761405,2.21735578260835,0.278030555653963,0.691936526985649,-7.8143475605401,0.994932432432432,-0.9166666666667,-0.744456881333129,-1,-1.04222972972973,-0.738778049687144
"199",12919430,1,6903,25,"Female","Caucasian","Master's Degree",2,"Republican",3.33333333333333,0,3,17,"rep","Republican",1,0,"ingroup",8,2,-0.505410383,0.901826067,0.517500582,0.396415684,2,6,66.5,56.6666666666667,12.0208152801713,9.45868207873944,-0.224838549461428,0,1.1023191061265,-4.00506756756757,9.8333333333333,10.0055431186669,-4,-4.04222972972973,-0.738778049687144
"200",12919430,1,6758,25,"Female","Caucasian","Master's Degree",2,"Republican",3.33333333333333,0,3,52,"rep","Republican",1,0,"ingroup",8,2,-0.505410383,0.901826067,0.517500582,0.396415684,6,2,68.1666666666667,59.5,8.28049917979989,3.53553390593274,0,0.205116087890362,-0.0643475605401012,3.99493243243243,8.6666666666667,8.83887645200027,4,3.95777027027027,-0.738778049687144
"201",12919430,1,3976,25,"Female","Caucasian","Master's Degree",2,"Republican",3.33333333333333,0,3,67,"rep","Republican",1,0,"ingroup",6,2,-0.505410383,0.901826067,0.517500582,0.396415684,2,4,77.5,56,4.94974746830583,13.7113092008021,0.315359017250441,0,12.7689857727932,-2.00506756756757,21.5,21.6722097853336,-2,-2.04222972972973,-0.738778049687144
"202",12919430,1,919,25,"Female","Caucasian","Master's Degree",2,"Republican",3.33333333333333,0,3,3,"dem","Republican",0,1,"outgroup",4,2,-0.505410383,0.901826067,0.517500582,0.396415684,2,2,53.5,63,10.6066017177982,1.4142135623731,0,0,0.768985772793199,-0.00506756756756757,-9.5,-9.32779021466643,0,-0.0422297297297297,-0.738778049687144
"203",12919430,0,3479,25,"Female","Caucasian","Master's Degree",2,"Republican",3.33333333333333,0,3,69,"dem","Republican",0,1,"ingroup",6,2,-0.505410383,0.901826067,0.517500582,0.396415684,2,4,60.5,64.25,14.8492424049175,16.9975488428969,0.276426253587266,0,-12.4810142272068,-2.00506756756757,-3.75,-3.57779021466643,-2,-2.04222972972973,-0.738778049687144
"204",12919430,1,14221,25,"Female","Caucasian","Master's Degree",2,"Republican",3.33333333333333,0,3,46,"rep","Republican",1,0,"ingroup",13,2,-0.505410383,0.901826067,0.517500582,0.396415684,5,8,65.8,63,10.8949529599719,5.90399380564909,-1.42482485575111,-1.23283383383581,-5.9310142272068,-3.00506756756757,2.8,2.97220978533357,-3,-3.04222972972973,-0.738778049687144
"205",12919430,1,6995,25,"Female","Caucasian","Master's Degree",2,"Republican",3.33333333333333,0,3,45,"dem","Republican",0,1,"outgroup",8,2,-0.505410383,0.901826067,0.517500582,0.396415684,3,5,62.6666666666667,68.8,8.02080627701064,11.9874934827928,0.344950501468931,0.151641085063001,-2.5976808938735,1.99493243243243,-6.1333333333333,-5.96112354799973,-2,-2.04222972972973,-0.738778049687144
"206",12919430,1,3561,25,"Female","Caucasian","Master's Degree",2,"Republican",3.33333333333333,0,3,42,"rep","Republican",1,0,"ingroup",6,2,-0.505410383,0.901826067,0.517500582,0.396415684,5,1,65,53,10.0249688278817,NA,NA,0.256340893502994,3.2689857727932,3.99493243243243,12,12.1722097853336,4,3.95777027027027,-0.738778049687144
"207",12919430,1,985,25,"Female","Caucasian","Master's Degree",2,"Republican",3.33333333333333,0,3,72,"rep","Republican",1,0,"ingroup",4,2,-0.505410383,0.901826067,0.517500582,0.396415684,2,2,71,52.5,4.24264068711928,9.19238815542512,0,0,9.7689857727932,-0.00506756756756757,18.5,18.6722097853336,0,-0.0422297297297297,-0.738778049687144
"208",12919430,1,3682,25,"Female","Caucasian","Master's Degree",2,"Republican",3.33333333333333,0,3,38,"rep","Republican",1,0,"ingroup",6,2,-0.505410383,0.901826067,0.517500582,0.396415684,2,4,70.5,57.25,9.19238815542512,10.5948100502085,0.357425189351343,0,4.5189857727932,-2.00506756756757,13.25,13.4222097853336,-2,-2.04222972972973,-0.738778049687144
"209",12919430,1,5297,25,"Female","Caucasian","Master's Degree",2,"Republican",3.33333333333333,0,3,24,"dem","Republican",0,1,"outgroup",7,2,-0.505410383,0.901826067,0.517500582,0.396415684,5,2,60,67,13.6565002837477,24.0416305603426,0,0.726937519525094,-1.7310142272068,-3.00506756756757,-7,-6.82779021466643,3,2.95777027027027,-0.738778049687144
"210",12919430,1,4169,25,"Female","Caucasian","Master's Degree",2,"Republican",3.33333333333333,0,3,80,"rep","Republican",1,0,"ingroup",6,2,-0.505410383,0.901826067,0.517500582,0.396415684,4,2,64.25,49,4.5,16.9705627484771,0,-0.213833433033195,6.5189857727932,1.99493243243243,15.25,15.4222097853336,2,1.95777027027027,-0.738778049687144
"211",12919430,1,3892,25,"Female","Caucasian","Master's Degree",2,"Republican",3.33333333333333,0,3,32,"dem","Republican",0,1,"outgroup",6,2,-0.505410383,0.901826067,0.517500582,0.396415684,3,3,55.3333333333333,71,13.5769412362775,21.7944947177034,-0.665468866123835,-0.222120870121123,6.9356524394599,-0.00506756756756757,-15.6666666666667,-15.4944568813331,0,-0.0422297297297297,-0.738778049687144
"212",12919430,0,10414,25,"Female","Caucasian","Master's Degree",2,"Republican",3.33333333333333,0,3,30,"rep","Republican",1,0,"outgroup",10,2,-0.505410383,0.901826067,0.517500582,0.396415684,6,4,63,72,10.9361784915939,9.23760430703401,0,-0.256280333237481,0.268985772793199,-2.00506756756757,-9,-8.82779021466643,2,1.95777027027027,-0.738778049687144
"213",12919430,1,3748,25,"Female","Caucasian","Master's Degree",2,"Republican",3.33333333333333,0,3,62,"dem","Republican",0,1,"outgroup",6,2,-0.505410383,0.901826067,0.517500582,0.396415684,4,2,60.75,71.5,5.5,10.6066017177982,0,-0.733074346303882,2.0189857727932,-2.00506756756757,-10.75,-10.5777902146664,2,1.95777027027027,-0.738778049687144
"214",12919430,1,2436,25,"Female","Caucasian","Master's Degree",2,"Republican",3.33333333333333,0,3,71,"dem","Republican",0,1,"outgroup",5,2,-0.505410383,0.901826067,0.517500582,0.396415684,3,2,56,73.5,9.8488578017961,2.12132034355964,0,0.50767200344337,8.7689857727932,-1.00506756756757,-17.5,-17.3277902146664,1,0.95777027027027,-0.738778049687144
"215",12919430,1,5418,25,"Female","Caucasian","Master's Degree",2,"Republican",3.33333333333333,0,3,58,"rep","Republican",1,0,"ingroup",7,2,-0.505410383,0.901826067,0.517500582,0.396415684,3,4,61.3333333333333,62.75,8.7368949480541,14.4769932421526,0.31468360357785,0.455638592611887,-10.1476808938735,-1.00506756756757,-1.4166666666667,-1.24445688133313,-1,-1.04222972972973,-0.738778049687144
"216",12919430,1,2220,25,"Female","Caucasian","Master's Degree",2,"Republican",3.33333333333333,0,3,35,"rep","Republican",1,0,"ingroup",5,2,-0.505410383,0.901826067,0.517500582,0.396415684,3,2,69.6666666666667,57.5,12.6622799421484,10.6066017177982,0,-0.327037990601798,3.4356524394599,0.994932432432432,12.1666666666667,12.3388764520003,1,0.95777027027027,-0.738778049687144
"217",12919430,1,3836,25,"Female","Caucasian","Master's Degree",2,"Republican",3.33333333333333,0,3,68,"dem","Republican",0,1,"outgroup",6,2,-0.505410383,0.901826067,0.517500582,0.396415684,3,3,60.3333333333333,67.6666666666667,4.16333199893227,18.9296944860009,-0.652012117044047,0.528004979218186,-1.3976808938734,-0.00506756756756757,-7.3333333333334,-7.16112354799983,0,-0.0422297297297297,-0.738778049687144
"218",12919430,1,8680,25,"Female","Caucasian","Master's Degree",2,"Republican",3.33333333333333,0,3,49,"dem","Republican",0,1,"outgroup",9,2,-0.505410383,0.901826067,0.517500582,0.396415684,7,2,53.7142857142857,62,8.76953601422344,0,NA,-0.827026608013804,-0.445299941492502,-5.00506756756757,-8.2857142857143,-8.11350450038073,5,4.95777027027027,-0.738778049687144
"219",12919430,1,10113,25,"Female","Caucasian","Master's Degree",2,"Republican",3.33333333333333,0,3,50,"rep","Republican",1,0,"ingroup",10,2,-0.505410383,0.901826067,0.517500582,0.396415684,4,6,68,58.1666666666667,15.5777619273972,10.5719755328258,-0.720246381622554,0.806414091752187,1.1023191061265,-2.00506756756757,9.8333333333333,10.0055431186669,-2,-2.04222972972973,-0.738778049687144
"220",12919430,1,3733,25,"Female","Caucasian","Master's Degree",2,"Republican",3.33333333333333,0,3,43,"rep","Republican",1,0,"ingroup",6,2,-0.505410383,0.901826067,0.517500582,0.396415684,4,2,70.75,60,8.26135582092915,1.4142135623731,0,-0.84195575774808,2.0189857727932,1.99493243243243,10.75,10.9222097853336,2,1.95777027027027,-0.738778049687144
"221",12919430,1,4356,25,"Female","Caucasian","Master's Degree",2,"Republican",3.33333333333333,0,3,37,"dem","Republican",0,1,"outgroup",6,2,-0.505410383,0.901826067,0.517500582,0.396415684,3,3,68,66.6666666666667,7,14.4337567297406,-0.707106781186549,0,-10.0643475605401,-0.00506756756756757,1.3333333333333,1.50554311866687,0,-0.0422297297297297,-0.738778049687144
"222",12919430,1,5312,25,"Female","Caucasian","Master's Degree",2,"Republican",3.33333333333333,0,3,4,"dem","Republican",0,1,"outgroup",7,2,-0.505410383,0.901826067,0.517500582,0.396415684,3,4,56,68.75,11.5325625946708,10.3077640640442,1.06421286386129,-0.158100541838513,4.0189857727932,0.994932432432432,-12.75,-12.5777902146664,-1,-1.04222972972973,-0.738778049687144
"223",12919430,1,3693,25,"Female","Caucasian","Master's Degree",2,"Republican",3.33333333333333,0,3,56,"dem","Republican",0,1,"outgroup",6,2,-0.505410383,0.901826067,0.517500582,0.396415684,2,4,49.5,76.75,21.920310216783,9.56991814663706,0.68031478080091,0,18.5189857727932,1.99493243243243,-27.25,-27.0777902146664,-2,-2.04222972972973,-0.738778049687144
"224",12919430,1,11492,25,"Female","Caucasian","Master's Degree",2,"Republican",3.33333333333333,0,3,19,"rep","Republican",1,0,"ingroup",11,2,-0.505410383,0.901826067,0.517500582,0.396415684,3,8,62.3333333333333,62.875,13.3166562369588,6.9372184627558,0.2165301948949,-0.689205498142876,-9.2726808938735,-5.00506756756757,-0.5416666666667,-0.369456881333129,-5,-5.04222972972973,-0.738778049687144
"225",12919430,0,3935,25,"Female","Caucasian","Master's Degree",2,"Republican",3.33333333333333,0,3,1,"rep","Republican",1,0,"outgroup",6,2,-0.505410383,0.901826067,0.517500582,0.396415684,3,3,63.3333333333333,60,4.04145188432738,9.64365076099295,0.630903856710624,0.707106781186545,-12.0643475605401,-0.00506756756756757,3.3333333333333,3.50554311866687,0,-0.0422297297297297,-0.738778049687144
"226",12919430,0,9873,25,"Female","Caucasian","Master's Degree",2,"Republican",3.33333333333333,0,3,31,"rep","Republican",1,0,"outgroup",10,2,-0.505410383,0.901826067,0.517500582,0.396415684,5,5,61.8,57,8.1363382427232,6.78232998312527,-0.854686102743996,-1.16348057178844,-13.5310142272068,-0.00506756756756757,4.8,4.97220978533357,0,-0.0422297297297297,-0.738778049687144
"227",12919430,1,5499,25,"Female","Caucasian","Master's Degree",2,"Republican",3.33333333333333,0,3,21,"rep","Republican",1,0,"ingroup",7,2,-0.505410383,0.901826067,0.517500582,0.396415684,3,4,69.3333333333333,67.25,1.52752523165195,5.79511288357124,0.433859935401335,0.381801774160618,-6.6476808938735,-1.00506756756757,2.0833333333333,2.25554311866687,-1,-1.04222972972973,-0.738778049687144
"228",12919430,1,3847,25,"Female","Caucasian","Master's Degree",2,"Republican",3.33333333333333,0,3,44,"rep","Republican",1,0,"ingroup",6,2,-0.505410383,0.901826067,0.517500582,0.396415684,1,5,75,55.8,NA,17.0205757834452,-0.424896652994429,NA,10.4689857727932,-4.00506756756757,19.2,19.3722097853336,-4,-4.04222972972973,-0.738778049687144
"229",12919430,1,3487,25,"Female","Caucasian","Master's Degree",2,"Republican",3.33333333333333,0,3,5,"dem","Republican",0,1,"outgroup",6,2,-0.505410383,0.901826067,0.517500582,0.396415684,3,3,65.3333333333333,76.6666666666667,0.577350269189626,5.77350269189626,-0.707106781186551,0.707106781186578,2.6023191061266,-0.00506756756756757,-11.3333333333334,-11.1611235479998,0,-0.0422297297297297,-0.738778049687144
"230",12919430,1,771,25,"Female","Caucasian","Master's Degree",2,"Republican",3.33333333333333,0,3,36,"rep","Republican",1,0,"ingroup",4,2,-0.505410383,0.901826067,0.517500582,0.396415684,2,2,69,45,1.4142135623731,2.82842712474619,0,0,15.2689857727932,-0.00506756756756757,24,24.1722097853336,0,-0.0422297297297297,-0.738778049687144
"231",12919430,1,7368,25,"Female","Caucasian","Master's Degree",2,"Republican",3.33333333333333,0,3,18,"rep","Republican",1,0,"ingroup",8,2,-0.505410383,0.901826067,0.517500582,0.396415684,5,3,63,59.6666666666667,10.7238052947636,9.07377172587747,-0.264123822860517,0.122388895207413,-5.3976808938735,1.99493243243243,3.3333333333333,3.50554311866687,2,1.95777027027027,-0.738778049687144
"232",12919430,1,5079,25,"Female","Caucasian","Master's Degree",2,"Republican",3.33333333333333,0,3,79,"dem","Republican",0,1,"outgroup",7,2,-0.505410383,0.901826067,0.517500582,0.396415684,2,5,47,63.8,1.4142135623731,5.11859355682789,0.804341291857415,0,8.0689857727932,2.99493243243243,-16.8,-16.6277902146664,-3,-3.04222972972973,-0.738778049687144
"233",12919430,1,780,25,"Female","Caucasian","Master's Degree",2,"Republican",3.33333333333333,0,3,16,"rep","Republican",1,0,"ingroup",4,2,-0.505410383,0.901826067,0.517500582,0.396415684,2,2,77.5,63.5,3.53553390593274,3.53553390593274,0,0,5.2689857727932,-0.00506756756756757,14,14.1722097853336,0,-0.0422297297297297,-0.738778049687144
"234",12919430,1,1702,25,"Female","Caucasian","Master's Degree",2,"Republican",3.33333333333333,0,3,22,"dem","Republican",0,1,"outgroup",5,2,-0.505410383,0.901826067,0.517500582,0.396415684,2,3,62,71.3333333333333,12.7279220613579,7.02376916856849,-0.172800544078648,0,0.602319106126499,0.994932432432432,-9.3333333333333,-9.16112354799973,-1,-1.04222972972973,-0.738778049687144
"235",12919430,1,4068,25,"Female","Caucasian","Master's Degree",2,"Republican",3.33333333333333,0,3,57,"dem","Republican",0,1,"outgroup",6,2,-0.505410383,0.901826067,0.517500582,0.396415684,3,3,59.6666666666667,77.6666666666667,7.02376916856849,14.1891977691952,0.333066546426974,0.172800544078652,9.2689857727932,-0.00506756756756757,-18,-17.8277902146664,0,-0.0422297297297297,-0.738778049687144
"236",12919430,1,8191,25,"Female","Caucasian","Master's Degree",2,"Republican",3.33333333333333,0,3,23,"dem","Republican",0,1,"outgroup",9,2,-0.505410383,0.901826067,0.517500582,0.396415684,5,4,53.2,61.75,7.04982269280583,12.5532200384337,0.435381523733312,1.06871401800621,-0.181014227206804,-1.00506756756757,-8.55,-8.37779021466643,1,0.95777027027027,-0.738778049687144
"237",12919430,1,2999,25,"Female","Caucasian","Master's Degree",2,"Republican",3.33333333333333,0,3,33,"dem","Republican",0,1,"outgroup",5,2,-0.505410383,0.901826067,0.517500582,0.396415684,3,2,56.6666666666667,65,14.742229591664,1.4142135623731,0,-0.577633692366201,-0.397680893873501,-1.00506756756757,-8.3333333333333,-8.16112354799973,1,0.95777027027027,-0.738778049687144
"238",12919430,1,3599,25,"Female","Caucasian","Master's Degree",2,"Republican",3.33333333333333,0,3,78,"rep","Republican",1,0,"ingroup",6,2,-0.505410383,0.901826067,0.517500582,0.396415684,3,3,74.3333333333333,58,11.060440015358,8.54400374531753,0.212072860755985,0.21824567180388,7.6023191061265,-0.00506756756756757,16.3333333333333,16.5055431186669,0,-0.0422297297297297,-0.738778049687144
"239",12919430,1,2834,25,"Female","Caucasian","Master's Degree",2,"Republican",3.33333333333333,0,3,2,"dem","Republican",0,1,"outgroup",5,2,-0.505410383,0.901826067,0.517500582,0.396415684,3,2,53.6666666666667,70,11.9303534454489,2.82842712474619,0,-0.657138696580687,7.6023191061265,-1.00506756756757,-16.3333333333333,-16.1611235479997,1,0.95777027027027,-0.738778049687144
"240",12919430,1,972,25,"Female","Caucasian","Master's Degree",2,"Republican",3.33333333333333,0,3,34,"rep","Republican",1,0,"ingroup",4,2,-0.505410383,0.901826067,0.517500582,0.396415684,2,2,70,59.5,1.4142135623731,3.53553390593274,0,0,1.7689857727932,-0.00506756756756757,10.5,10.6722097853336,0,-0.0422297297297297,-0.738778049687144
"241",20045232,1,5359,26,"Male","Caucasian","Master's Degree",6,"Independent",5.33333333333333,2,4,1,"dem","Democrat",NA,NA,"ingroup",7,2,NA,NA,NA,NA,3,4,72,49.75,13.5277492584687,11.4418821295566,0.135061522784741,-0.61832814071785,13.5189857727932,-1.00506756756757,22.25,22.4222097853336,-1,-1.04222972972973,0.686963598241973
"242",20045232,1,8308,26,"Male","Caucasian","Master's Degree",6,"Independent",5.33333333333333,2,4,2,"rep","Democrat",NA,NA,"outgroup",9,2,NA,NA,NA,NA,5,4,60.6,71.75,15.1756383720752,2.21735578260835,0.81764494143127,0.992966270192724,2.4189857727932,-1.00506756756757,-11.15,-10.9777902146664,1,0.95777027027027,0.686963598241973
"243",20045232,1,6727,26,"Male","Caucasian","Master's Degree",6,"Independent",5.33333333333333,2,4,3,"dem","Democrat",NA,NA,"ingroup",8,2,NA,NA,NA,NA,5,3,72.8,58.6666666666667,11.8194754536739,13.5769412362775,-0.718361475728496,-0.702793695548472,5.4023191061265,1.99493243243243,14.1333333333333,14.3055431186669,2,1.95777027027027,0.686963598241973
"244",20045232,1,11098,26,"Male","Caucasian","Master's Degree",6,"Independent",5.33333333333333,2,4,4,"rep","Democrat",NA,NA,"outgroup",11,2,NA,NA,NA,NA,6,5,56.3333333333333,62.6,8.33466656001706,12.7003936946852,-0.475864282840802,-0.059138792357862,-2.4643475605401,-1.00506756756757,-6.2666666666667,-6.09445688133313,1,0.95777027027027,0.686963598241973
"245",20045232,1,7909,26,"Male","Caucasian","Master's Degree",6,"Independent",5.33333333333333,2,4,5,"dem","Democrat",NA,NA,"ingroup",9,2,NA,NA,NA,NA,3,6,64.3333333333333,52,16.0727512683216,4.38178046004133,-0.630903856710623,0.140625,3.6023191061265,-3.00506756756757,12.3333333333333,12.5055431186669,-3,-3.04222972972973,0.686963598241973
"246",20045232,1,8274,26,"Male","Caucasian","Master's Degree",6,"Independent",5.33333333333333,2,4,6,"dem","Democrat",NA,NA,"ingroup",9,2,NA,NA,NA,NA,4,5,70.5,56.2,9.1469484893415,8.87130204648675,-0.547705741014747,-0.478778947311687,5.5689857727932,-1.00506756756757,14.3,14.4722097853336,-1,-1.04222972972973,0.686963598241973
"247",20045232,1,9839,26,"Male","Caucasian","Master's Degree",6,"Independent",5.33333333333333,2,4,7,"dem","Democrat",NA,NA,"ingroup",10,2,NA,NA,NA,NA,6,4,62,58,13.9713993572584,7.61577310586391,-0.0925450890767971,-0.402576202452245,-4.7310142272068,1.99493243243243,4,4.17220978533357,2,1.95777027027027,0.686963598241973
"248",20045232,0,9862,26,"Male","Caucasian","Master's Degree",6,"Independent",5.33333333333333,2,4,8,"dem","Democrat",NA,NA,"outgroup",10,2,NA,NA,NA,NA,5,5,70,63.6,10.0498756211209,3.20936130717624,-0.726970656592549,-0.103495292414193,-15.1310142272068,-0.00506756756756757,6.4,6.57220978533357,0,-0.0422297297297297,0.686963598241973
"249",20045232,1,12637,26,"Male","Caucasian","Master's Degree",6,"Independent",5.33333333333333,2,4,9,"dem","Democrat",NA,NA,"ingroup",12,2,NA,NA,NA,NA,7,5,66.1428571428571,55.8,13.6434180886923,4.96990945591567,1.19272931479566,0.132790528872635,1.6118429156503,1.99493243243243,10.3428571428571,10.5150669281907,2,1.95777027027027,0.686963598241973
"250",20045232,1,14432,26,"Male","Caucasian","Master's Degree",6,"Independent",5.33333333333333,2,4,10,"rep","Democrat",NA,NA,"outgroup",13,2,NA,NA,NA,NA,5,8,62.4,66.875,15.5659885648166,12.3685950235725,0.345242335026595,0.241053241296869,-4.2560142272068,2.99493243243243,-4.475,-4.30279021466643,-3,-3.04222972972973,0.686963598241973
"251",20045232,1,10042,26,"Male","Caucasian","Master's Degree",6,"Independent",5.33333333333333,2,4,11,"dem","Democrat",NA,NA,"ingroup",10,2,NA,NA,NA,NA,4,6,65,57.3333333333333,10.0995049383621,11.2190314495801,-1.08952042325829,-0.558164269032987,-1.0643475605401,-2.00506756756757,7.6666666666667,7.83887645200027,-2,-2.04222972972973,0.686963598241973
"252",20045232,0,16094,26,"Male","Caucasian","Master's Degree",6,"Independent",5.33333333333333,2,4,12,"rep","Democrat",NA,NA,"ingroup",14,2,NA,NA,NA,NA,6,8,60,64.5,6.57267069006199,3.4226138716317,1.07407407407407,-1.50840999287532,-13.2310142272068,-2.00506756756757,-4.5,-4.32779021466643,-2,-2.04222972972973,0.686963598241973
"253",20045232,1,7934,26,"Male","Caucasian","Master's Degree",6,"Independent",5.33333333333333,2,4,13,"rep","Democrat",NA,NA,"outgroup",9,2,NA,NA,NA,NA,3,6,57.3333333333333,70.3333333333333,11.7189305541646,15.5777619273972,-0.615560235927547,0.119996620072912,4.2689857727932,2.99493243243243,-13,-12.8277902146664,-3,-3.04222972972973,0.686963598241973
"254",20045232,1,3848,26,"Male","Caucasian","Master's Degree",6,"Independent",5.33333333333333,2,4,14,"dem","Democrat",NA,NA,"ingroup",6,2,NA,NA,NA,NA,3,3,76,49.3333333333333,10.5830052442584,7.23417813807024,-0.595170064139497,-0.691936526985649,17.9356524394599,-0.00506756756756757,26.6666666666667,26.8388764520003,0,-0.0422297297297297,0.686963598241973
"255",20045232,1,5155,26,"Male","Caucasian","Master's Degree",6,"Independent",5.33333333333333,2,4,15,"rep","Democrat",NA,NA,"outgroup",7,2,NA,NA,NA,NA,2,5,63,73.4,8.48528137423857,3.71483512420134,0,-0.319284219053567,1.6689857727932,2.99493243243243,-10.4,-10.2277902146664,-3,-3.04222972972973,0.686963598241973
"256",20045232,1,2084,26,"Male","Caucasian","Master's Degree",6,"Independent",5.33333333333333,2,4,16,"rep","Democrat",NA,NA,"outgroup",5,2,NA,NA,NA,NA,2,3,64.5,85.6666666666667,4.94974746830583,10.2143689640297,0,-0.639105533342181,12.4356524394599,0.994932432432432,-21.1666666666667,-20.9944568813331,-1,-1.04222972972973,0.686963598241973
"257",20045232,1,8145,26,"Male","Caucasian","Master's Degree",6,"Independent",5.33333333333333,2,4,17,"dem","Democrat",NA,NA,"ingroup",9,2,NA,NA,NA,NA,3,6,68,52.5,20.2977831301844,12.4378454725889,-0.347973556387298,0.0122972755236479,6.7689857727932,-3.00506756756757,15.5,15.6722097853336,-3,-3.04222972972973,0.686963598241973
"258",20045232,0,19115,26,"Male","Caucasian","Master's Degree",6,"Independent",5.33333333333333,2,4,18,"dem","Democrat",NA,NA,"outgroup",16,2,NA,NA,NA,NA,9,7,60.2222222222222,65.2857142857143,14.2019169285151,11.426785574755,0.326877652919904,0.881312825620446,-3.6675221637147,-2.00506756756757,-5.06349206349211,-4.89128227815854,2,1.95777027027027,0.686963598241973
"259",20045232,1,8082,26,"Male","Caucasian","Master's Degree",6,"Independent",5.33333333333333,2,4,19,"dem","Democrat",NA,NA,"ingroup",9,2,NA,NA,NA,NA,4,5,74,57,8.32666399786453,15.3460092532228,0,-0.493279608714085,8.2689857727932,-1.00506756756757,17,17.1722097853336,-1,-1.04222972972973,0.686963598241973
"260",20045232,1,5261,26,"Male","Caucasian","Master's Degree",6,"Independent",5.33333333333333,2,4,20,"rep","Democrat",NA,NA,"outgroup",7,2,NA,NA,NA,NA,3,4,47,62.75,5.19615242270663,6.18465843842649,0.707106781186547,0.568043903368225,7.0189857727932,0.994932432432432,-15.75,-15.5777902146664,-1,-1.04222972972973,0.686963598241973
"261",20045232,1,11259,26,"Male","Caucasian","Master's Degree",6,"Independent",5.33333333333333,2,4,21,"rep","Democrat",NA,NA,"outgroup",11,2,NA,NA,NA,NA,6,5,53.5,64.4,10.5782796332863,7.70064932327138,0.654652074916406,-0.338459486796718,2.1689857727932,-1.00506756756757,-10.9,-10.7277902146664,1,0.95777027027027,0.686963598241973
"262",20045232,1,8345,26,"Male","Caucasian","Master's Degree",6,"Independent",5.33333333333333,2,4,22,"dem","Democrat",NA,NA,"ingroup",9,2,NA,NA,NA,NA,3,6,70,55.6666666666667,3.46410161513775,10.7269131937695,-0.707106781186547,-0.0845684921940691,5.6023191061265,-3.00506756756757,14.3333333333333,14.5055431186669,-3,-3.04222972972973,0.686963598241973
"263",20045232,1,9615,26,"Male","Caucasian","Master's Degree",6,"Independent",5.33333333333333,2,4,23,"dem","Democrat",NA,NA,"ingroup",10,2,NA,NA,NA,NA,4,6,65.75,60.5,2.87228132326901,11.1130553854464,1.06594919800219,-0.344805300558611,-3.4810142272068,-2.00506756756757,5.25,5.42220978533357,-2,-2.04222972972973,0.686963598241973
"264",20045232,1,14514,26,"Male","Caucasian","Master's Degree",6,"Independent",5.33333333333333,2,4,24,"dem","Democrat",NA,NA,"ingroup",13,2,NA,NA,NA,NA,7,6,62.8571428571429,56.8333333333333,11.0216237676755,11.5484486692658,0.260496533952156,-0.253140261495496,-2.7072047033972,0.994932432432432,6.0238095238096,6.19601930914317,1,0.95777027027027,0.686963598241973
"265",20045232,1,6542,26,"Male","Caucasian","Master's Degree",6,"Independent",5.33333333333333,2,4,25,"rep","Democrat",NA,NA,"outgroup",8,2,NA,NA,NA,NA,6,2,51.6666666666667,63.5,10.7269131937695,6.36396103067893,0.196590188943678,0,3.1023191061265,-4.00506756756757,-11.8333333333333,-11.6611235479997,4,3.95777027027027,0.686963598241973
"266",20045232,1,14058,26,"Male","Caucasian","Master's Degree",6,"Independent",5.33333333333333,2,4,26,"dem","Democrat",NA,NA,"ingroup",13,2,NA,NA,NA,NA,4,9,64.75,59.7777777777778,14.5,13.0170827931778,-0.356272153483286,-0.965014580296973,-3.7587920049846,-5.00506756756757,4.9722222222222,5.14443200755577,-5,-5.04222972972973,0.686963598241973
"267",20045232,1,5262,26,"Male","Caucasian","Master's Degree",6,"Independent",5.33333333333333,2,4,27,"dem","Democrat",NA,NA,"ingroup",7,2,NA,NA,NA,NA,4,3,72.5,53.3333333333333,14.7986485869487,9.01849950564579,-0.114012685244328,-0.135061522784742,10.4356524394599,0.994932432432432,19.1666666666667,19.3388764520003,1,0.95777027027027,0.686963598241973
"268",20045232,1,9991,26,"Male","Caucasian","Master's Degree",6,"Independent",5.33333333333333,2,4,28,"dem","Democrat",NA,NA,"ingroup",10,2,NA,NA,NA,NA,6,4,69.8333333333333,58.5,11.8897715144853,12.9743336373524,0.674732531093417,-0.85650360994904,2.6023191061265,1.99493243243243,11.3333333333333,11.5055431186669,2,1.95777027027027,0.686963598241973
"269",20045232,1,17088,26,"Male","Caucasian","Master's Degree",6,"Independent",5.33333333333333,2,4,29,"rep","Democrat",NA,NA,"outgroup",15,2,NA,NA,NA,NA,11,4,58.2727272727273,68.75,8.50988729761927,7.8049129826454,-0.173885519082282,-0.341529095063156,1.7462585000659,-7.00506756756757,-10.4772727272727,-10.3050629419391,7,6.95777027027027,0.686963598241973
"270",20045232,1,12801,26,"Male","Caucasian","Master's Degree",6,"Independent",5.33333333333333,2,4,30,"dem","Democrat",NA,NA,"ingroup",12,2,NA,NA,NA,NA,6,6,66,60.6666666666667,12.3773987574126,7.22956891292051,-0.513690967197211,-0.924469962648228,-3.3976808938735,-0.00506756756756757,5.3333333333333,5.50554311866687,0,-0.0422297297297297,0.686963598241973
"271",20045232,1,11156,26,"Male","Caucasian","Master's Degree",6,"Independent",5.33333333333333,2,4,31,"rep","Democrat",NA,NA,"outgroup",11,2,NA,NA,NA,NA,7,4,60.4285714285714,70.25,5.79819347892493,6.7515430335097,0.0508875707370153,0.443202365204224,1.0904143442218,-3.00506756756757,-9.8214285714286,-9.64921878609503,3,2.95777027027027,0.686963598241973
"272",20045232,1,23013,26,"Male","Caucasian","Master's Degree",6,"Independent",5.33333333333333,2,4,32,"rep","Democrat",NA,NA,"outgroup",19,2,NA,NA,NA,NA,10,9,63.6,65,10.8341025367945,13.7477270848675,-1.50100865867509,0.431681990965376,-7.3310142272068,-1.00506756756757,-1.4,-1.22779021466643,1,0.95777027027027,0.686963598241973
"273",20045232,1,12521,26,"Male","Caucasian","Master's Degree",6,"Independent",5.33333333333333,2,4,33,"dem","Democrat",NA,NA,"ingroup",12,2,NA,NA,NA,NA,5,7,67.2,58.5714285714286,14.1138230115019,11.0883894661209,-0.482284197132955,-0.458185241324814,-0.102442798635396,-2.00506756756757,8.62857142857141,8.80078121390498,-2,-2.04222972972973,0.686963598241973
"274",20045232,0,15887,26,"Male","Caucasian","Master's Degree",6,"Independent",5.33333333333333,2,4,34,"rep","Democrat",NA,NA,"ingroup",14,2,NA,NA,NA,NA,6,8,60.8333333333333,57.25,7.3869253865642,11.6220234284495,-1.191736080596,-0.0524617589348502,-5.1476808938735,-2.00506756756757,3.5833333333333,3.75554311866687,-2,-2.04222972972973,0.686963598241973
"275",20045232,1,6681,26,"Male","Caucasian","Master's Degree",6,"Independent",5.33333333333333,2,4,35,"dem","Democrat",NA,NA,"ingroup",8,2,NA,NA,NA,NA,2,6,84,63,8.48528137423857,11.9498953970317,0,-1.09541618720514,12.2689857727932,-4.00506756756757,21,21.1722097853336,-4,-4.04222972972973,0.686963598241973
"276",20045232,1,11145,26,"Male","Caucasian","Master's Degree",6,"Independent",5.33333333333333,2,4,36,"rep","Democrat",NA,NA,"outgroup",11,2,NA,NA,NA,NA,4,7,58.25,62.4285714285714,6.5,6.45128263363555,1.15470053837925,0.896687839611901,-4.5524427986354,2.99493243243243,-4.1785714285714,-4.00636164323783,-3,-3.04222972972973,0.686963598241973
"277",20045232,1,7094,26,"Male","Caucasian","Master's Degree",6,"Independent",5.33333333333333,2,4,37,"dem","Democrat",NA,NA,"ingroup",8,2,NA,NA,NA,NA,6,2,77.8333333333333,64,9.62115724155191,15.556349186104,-0.479102609438695,0,5.1023191061265,3.99493243243243,13.8333333333333,14.0055431186669,4,3.95777027027027,0.686963598241973
"278",20045232,1,11563,26,"Male","Caucasian","Master's Degree",6,"Independent",5.33333333333333,2,4,38,"rep","Democrat",NA,NA,"outgroup",11,2,NA,NA,NA,NA,7,4,62.1428571428571,70.75,13.4589322437873,3.5939764421413,0.158842903608802,0.979409375242402,-0.123871370063904,-3.00506756756757,-8.6071428571429,-8.43493307180933,3,2.95777027027027,0.686963598241973
"279",20045232,1,6578,26,"Male","Caucasian","Master's Degree",6,"Independent",5.33333333333333,2,4,39,"dem","Democrat",NA,NA,"ingroup",8,2,NA,NA,NA,NA,6,2,72.1666666666667,57.5,10.9071841768014,4.94974746830583,0.245760150920456,0,5.9356524394599,3.99493243243243,14.6666666666667,14.8388764520003,4,3.95777027027027,0.686963598241973
"280",20045232,1,7125,26,"Male","Caucasian","Master's Degree",6,"Independent",5.33333333333333,2,4,40,"rep","Democrat",NA,NA,"outgroup",8,2,NA,NA,NA,NA,4,4,51.5,65,10.4721853816033,8.98146239020499,0.30163286430272,0.937142270483148,4.7689857727932,-0.00506756756756757,-13.5,-13.3277902146664,0,-0.0422297297297297,0.686963598241973
"281",20045232,1,5232,26,"Male","Caucasian","Master's Degree",6,"Independent",5.33333333333333,2,4,41,"dem","Democrat",NA,NA,"ingroup",7,2,NA,NA,NA,NA,4,3,73.75,62.3333333333333,3.86221007541882,7.23417813807024,-1.10486774045901,-0.691936526985649,2.6856524394599,0.994932432432432,11.4166666666667,11.5888764520003,1,0.95777027027027,0.686963598241973
"282",20045232,1,15803,26,"Male","Caucasian","Master's Degree",6,"Independent",5.33333333333333,2,4,42,"dem","Democrat",NA,NA,"ingroup",14,2,NA,NA,NA,NA,8,6,64.875,58.1666666666667,12.0763937379619,16.3757951460888,0.0310298429097107,0.491045010933988,-2.0226808938735,1.99493243243243,6.7083333333333,6.88054311866687,2,1.95777027027027,0.686963598241973
"283",20045232,1,12921,26,"Male","Caucasian","Master's Degree",6,"Independent",5.33333333333333,2,4,43,"dem","Democrat",NA,NA,"ingroup",12,2,NA,NA,NA,NA,6,6,70.6666666666667,67,8.16496580927726,6.03324125159934,0.0465102139319937,-0.424989443269632,-5.0643475605401,-0.00506756756756757,3.6666666666667,3.83887645200027,0,-0.0422297297297297,0.686963598241973
"284",20045232,1,10971,26,"Male","Caucasian","Master's Degree",6,"Independent",5.33333333333333,2,4,44,"dem","Democrat",NA,NA,"ingroup",11,2,NA,NA,NA,NA,6,5,73.8333333333333,61.8,10.186592495367,5.54075807087803,-0.450095596728482,-0.767829237455444,3.3023191061265,0.994932432432432,12.0333333333333,12.2055431186669,1,0.95777027027027,0.686963598241973
"285",20045232,1,11100,26,"Male","Caucasian","Master's Degree",6,"Independent",5.33333333333333,2,4,45,"rep","Democrat",NA,NA,"outgroup",11,2,NA,NA,NA,NA,6,5,52.5,65.4,14.7343136928735,10.4067285925982,0.172596277312695,-1.41413779459556,4.1689857727932,-1.00506756756757,-12.9,-12.7277902146664,1,0.95777027027027,0.686963598241973
"286",20045232,1,8159,26,"Male","Caucasian","Master's Degree",6,"Independent",5.33333333333333,2,4,46,"rep","Democrat",NA,NA,"outgroup",9,2,NA,NA,NA,NA,4,5,58.5,70,16.3605215890774,15.0831031289984,-1.14305475410882,-0.623138161808508,2.7689857727932,0.994932432432432,-11.5,-11.3277902146664,-1,-1.04222972972973,0.686963598241973
"287",20045232,1,5611,26,"Male","Caucasian","Master's Degree",6,"Independent",5.33333333333333,2,4,47,"dem","Democrat",NA,NA,"ingroup",7,2,NA,NA,NA,NA,5,2,68,48,14.8155323900291,2.82842712474619,0.245987397479737,0,11.2689857727932,2.99493243243243,20,20.1722097853336,3,2.95777027027027,0.686963598241973
